File: Benchmarking/data/2022-01-31 11_11_16 test benchmarking 3_01_01_CVA_DUSB0_C01.mpt
EC-Lab ASCII FILE
Nb header lines : 66

Cyclic Voltammetry Advanced

Run on channel : 1 (SN 5836)
User :
Electrode connection : standard
Ewe ctrl range : min = -5,00 V, max = 5,00 V
Ewe,I filtering : 50 kHz
Safety Limits :
	Do not start on E overload
Channel : Grounded
Acquisition started on : 01/31/2022 11:19:17
Saved on :
	File : 2022-01-31 11_11_16 test benchmarking 3_01_01_CVA_DUSB0_C01.mpr
	Directory : C:\Users\Spectro Inlets Lab_1\Dropbox (Spectro Inlets)\Development\Data\New Benchmarking Procedure\2022-01-31 11_11_16 test benchmarking 3\
	Host : 192.168.1.105
Device : SP-200 (SN 0763)
Address : USB
EC-Lab for windows v11.27 (software)
Internet server v11.25 (firmware)
Command interpretor v11.27 (firmware)
Electrode material :
Initial state :
Electrolyte :
Comments :
Cable : standard
Electrode surface area : 0,001 cm²
Characteristic mass : 0,001 g
Equivalent Weight : 0,000 g/eq.
Density : 0,000 g/cm3
Record Ece
Cycle Definition : Charge/Discharge alternance
Ei (V)              0,000
vs.                 Eoc
ti (h:m:s)          0:00:10,0000
dti (s)             1,0000
dE/dt               20,000
dE/dt unit          mV/s
E1 (V)              1,700
vs.                 Ref
t1 (h:m:s)          0:00:0,0000
dt1 (s)             0,1000
Step percent        80
N                   20
E range min (V)     -5,000
E range max (V)     5,000
I Range             100 µA
I Range min         Unset
I Range max         Unset
I Range init        Unset
Bandwidth           1
E2 (V)              0,005
vs.                 Ref
t2 (h:m:s)          0:00:0,0000
dt2 (s)             0,1000
nc cycles           4
nr                  1
Reverse Scan        0
Ef (V)              0,000
vs.                 Eoc
tf (h:m:s)          0:00:0,0000
dtf (s)             0,1000

mode	ox/red	error	control changes	Ns changes	counter inc.	time/s	control/V	Ewe/V	<I>/mA	cycle number	(Q-Qo)/C	I Range	<Ece>/V	P/W	Ewe-Ece/V
2	1	1	0	1	0	0,000000000000000E+000	9,3164051E-001	9,3294942E-001	1,049653801601380E-004	1,000000000000000E+000	0,0000000E+000	41	1,2230860E+000	9,7927391E-008	-2,9013658E-001
2	1	0	0	0	0	1,091439972427906E+001	9,4973081E-001	9,5105404E-001	3,607616028851049E-004	1,000000000000000E+000	7,2071015E-007	41	1,2132229E+000	3,4310378E-007	-2,6216882E-001
2	1	0	1	0	0	1,391289964853058E+001	1,0096997E+000	1,0110093E+000	9,020939236841011E-004	1,000000000000000E+000	2,6867212E-006	41	1,1826088E+000	9,1202537E-007	-1,7159951E-001
2	1	0	1	0	0	1,691139957278210E+001	1,0696704E+000	1,0710280E+000	1,980651864869299E-003	1,000000000000000E+000	7,0637411E-006	41	1,1260295E+000	2,1213336E-006	-5,5001497E-002
2	1	0	0	0	0	1,990989949703362E+001	1,1296399E+000	1,1309779E+000	3,361252993945373E-003	1,000000000000000E+000	1,5216689E-005	41	1,0584620E+000	3,8015028E-006	7,2515845E-002
2	1	0	0	0	0	2,290839942128514E+001	1,1896101E+000	1,1909339E+000	4,730961228089785E-003	1,000000000000000E+000	2,7535958E-005	41	9,8952383E-001	5,6342624E-006	2,0141011E-001
2	1	0	1	0	0	2,590689934553666E+001	1,2495803E+000	1,2509285E+000	6,155567297702610E-003	1,000000000000000E+000	4,4006043E-005	41	9,1890764E-001	7,7001750E-006	3,3202088E-001
2	1	0	1	0	0	2,890539926978818E+001	1,3095498E+000	1,3108935E+000	7,375682352607070E-003	1,000000000000000E+000	6,4596687E-005	41	8,5472667E-001	9,6687345E-006	4,5616686E-001
2	1	0	0	0	0	3,190389919403970E+001	1,3695203E+000	1,3708652E+000	8,002136716656685E-003	1,000000000000000E+000	8,7895642E-005	41	8,0634272E-001	1,0969851E-005	5,6452250E-001
2	1	0	0	0	0	3,490239911829121E+001	1,4294894E+000	1,4308323E+000	8,372672049996588E-003	1,000000000000000E+000	1,1250404E-004	41	7,6876634E-001	1,1979890E-005	6,6206592E-001
2	1	0	1	0	0	3,790089904254273E+001	1,4894607E+000	1,4908015E+000	9,415399257561524E-003	1,000000000000000E+000	1,3894233E-004	41	7,2495836E-001	1,4036491E-005	7,6584309E-001
2	1	0	1	0	0	4,089939896679425E+001	1,5494291E+000	1,5507702E+000	1,298892093166765E-002	1,000000000000000E+000	1,7164840E-004	41	6,4213616E-001	2,0142830E-005	9,0863401E-001
2	1	0	0	0	0	4,389789889104577E+001	1,6094007E+000	1,6107484E+000	2,331444699403928E-002	1,000000000000000E+000	2,2360650E-004	41	4,5480171E-001	3,7553709E-005	1,1559467E+000
2	1	0	0	0	0	4,689629881529982E+001	1,6693668E+000	1,6707323E+000	5,059017108389541E-002	1,000000000000000E+000	3,2853949E-004	41	2,1775464E-002	8,4522631E-005	1,6489568E+000
2	1	0	0	0	0	4,933759875362739E+001	1,6817623E+000	1,6831470E+000	4,322198243329756E-002	1,000000000000000E+000	4,7838426E-004	41	1,2619711E-001	7,2748946E-005	1,5569499E+000
2	1	0	0	0	0	5,233609867787891E+001	1,6217906E+000	1,6231474E+000	7,133900429135115E-003	1,000000000000000E+000	5,3658750E-004	41	7,0687395E-001	1,1579372E-005	9,1627342E-001
2	1	0	1	0	0	5,533449860213295E+001	1,5618247E+000	1,5631607E+000	1,439653546052660E-003	1,000000000000000E+000	5,4702524E-004	41	8,2733303E-001	2,2504098E-006	7,3582762E-001
2	1	0	0	0	0	5,833299852638447E+001	1,5018530E+000	1,5031986E+000	2,871527450210550E-004	1,000000000000000E+000	5,4909190E-004	41	8,6601061E-001	4,3164761E-007	6,3718802E-001
2	1	0	0	0	0	6,133149845063599E+001	1,4418849E+000	1,4432307E+000	-1,027313037158816E-005	1,000000000000000E+000	5,4932578E-004	41	8,8395798E-001	-1,4826497E-008	5,5927277E-001
2	1	0	1	0	0	6,432999837488751E+001	1,3819134E+000	1,3832153E+000	-1,429639062043326E-004	1,000000000000000E+000	5,4898276E-004	41	8,9564389E-001	-1,9774987E-007	4,8757142E-001
2	0	0	1	0	0	6,732849829913903E+001	1,3219441E+000	1,3232746E+000	-2,470751642289791E-004	1,000000000000000E+000	5,4829830E-004	41	9,0514618E-001	-3,2694828E-007	4,1812843E-001
2	0	0	0	0	0	7,032699822339055E+001	1,2619737E+000	1,2633224E+000	-3,559138753301714E-004	1,000000000000000E+000	5,4729462E-004	41	9,1410524E-001	-4,4963394E-007	3,4921712E-001
2	0	0	0	0	0	7,332549814764207E+001	1,2020042E+000	1,2033181E+000	-4,902622259978754E-004	1,000000000000000E+000	5,4592924E-004	41	9,2347258E-001	-5,8994141E-007	2,7984554E-001
2	0	0	1	0	0	7,632399807189358E+001	1,1420341E+000	1,1433650E+000	-6,627634910980466E-004	1,000000000000000E+000	5,4410478E-004	41	9,3405586E-001	-7,5778058E-007	2,0930916E-001
2	0	0	1	0	0	7,932249799614510E+001	1,0820640E+000	1,0833801E+000	-9,115681451119829E-004	1,000000000000000E+000	5,4165535E-004	41	9,4701743E-001	-9,8757482E-007	1,3636267E-001
2	0	0	0	0	0	8,232099792039662E+001	1,0220944E+000	1,0234169E+000	-1,278664097192454E-003	1,000000000000000E+000	5,3830247E-004	41	9,6392643E-001	-1,3086064E-006	5,9490442E-002
2	0	0	0	0	0	8,531949784464814E+001	9,6212369E-001	9,6342325E-001	-1,857621969905479E-003	1,000000000000000E+000	5,3356198E-004	41	9,8736358E-001	-1,7896762E-006	-2,3940325E-002
2	0	0	1	0	0	8,831799776889966E+001	9,0215474E-001	9,0344828E-001	-2,862237065825238E-003	1,000000000000000E+000	5,2653218E-004	41	1,0222826E+000	-2,5858831E-006	-1,1883432E-001
2	0	0	1	0	0	9,131649769315118E+001	8,4218323E-001	8,4350824E-001	-4,901249774378169E-003	1,000000000000000E+000	5,1519816E-004	41	1,0812511E+000	-4,1342446E-006	-2,3774290E-001
2	0	0	0	0	0	9,431499761740270E+001	7,8221506E-001	7,8352696E-001	-1,024205598996527E-002	1,000000000000000E+000	4,9376133E-004	41	1,2068747E+000	-8,0249274E-006	-4,2334777E-001
2	0	0	1	0	0	9,731339754165674E+001	7,2224528E-001	7,2355092E-001	-2,010264808924767E-002	1,000000000000000E+000	4,4730931E-004	41	1,4355751E+000	-1,4545290E-005	-7,1202421E-001
2	0	0	1	0	0	1,003118974659083E+002	6,6227722E-001	6,6360295E-001	-1,101119484651872E-002	1,000000000000000E+000	3,9651553E-004	41	1,3817223E+000	-7,3070614E-006	-7,1811938E-001
2	0	0	0	0	0	1,033103973901598E+002	6,0230565E-001	6,0361695E-001	-4,729364399671560E-003	1,000000000000000E+000	3,7518531E-004	41	1,3114568E+000	-2,8547245E-006	-7,0783985E-001
2	0	0	0	0	0	1,063088973144113E+002	5,4233694E-001	5,4368025E-001	-3,443381113444402E-003	1,000000000000000E+000	3,6329046E-004	41	1,3047881E+000	-1,8720983E-006	-7,6110786E-001
2	0	0	1	0	0	1,093073972386628E+002	4,8236603E-001	4,8372290E-001	-3,253276571845855E-003	1,000000000000000E+000	3,5325464E-004	41	1,3160992E+000	-1,5736844E-006	-8,3237624E-001
2	0	0	1	0	0	1,123058971629143E+002	4,2239663E-001	4,2377508E-001	-3,346623812191321E-003	1,000000000000000E+000	3,4328445E-004	41	1,3339683E+000	-1,4182158E-006	-9,1019320E-001
2	0	0	0	0	0	1,153043970871659E+002	3,6242637E-001	3,6376449E-001	-3,619884839312044E-003	1,000000000000000E+000	3,3277730E-004	41	1,3565470E+000	-1,3167855E-006	-9,9278247E-001
2	0	0	0	0	0	1,183028970114174E+002	3,0245632E-001	3,0382347E-001	-4,417136659520093E-003	1,000000000000000E+000	3,2096071E-004	41	1,3908031E+000	-1,3420298E-006	-1,0869796E+000
2	0	0	1	0	0	1,213013969356689E+002	2,4248673E-001	2,4387950E-001	-6,022022355770623E-003	1,000000000000000E+000	3,0529455E-004	41	1,4467703E+000	-1,4686478E-006	-1,2028909E+000
2	0	0	1	0	0	1,242998968599204E+002	1,8251605E-001	1,8390320E-001	-8,099978861515471E-003	1,000000000000000E+000	2,8430790E-004	41	1,5178250E+000	-1,4896120E-006	-1,3339218E+000
2	0	0	0	0	0	1,272983967841719E+002	1,2254708E-001	1,2394489E-001	-9,889192882141015E-003	1,000000000000000E+000	2,5704599E-004	41	1,5899729E+000	-1,2257149E-006	-1,4660280E+000
2	0	0	0	0	0	1,302968967084234E+002	6,2575780E-002	6,3978985E-002	-1,288865582062668E-002	1,000000000000000E+000	2,2441443E-004	41	1,6762351E+000	-8,2460309E-007	-1,6122561E+000
2	0	0	1	0	1	1,331709966358176E+002	4,9062776E-003	6,3218707E-003	-9,557119011878967E-002	1,000000000000000E+000	1,2387341E-004	41	2,9374955E+000	-6,0418870E-007	-2,9311736E+000
2	1	0	0	0	1	1,360744965624690E+002	6,2976219E-002	6,4398356E-002	5,328552904069868E-003	1,000000000000000E+000	1,2831291E-004	41	1,1701311E+000	3,4315005E-007	-1,1057327E+000
2	1	0	0	0	1	1,390729964867205E+002	1,2294688E-001	1,2436563E-001	2,893272182151560E-003	1,000000000000000E+000	1,3825495E-004	41	1,1436931E+000	3,5982362E-007	-1,0193274E+000
2	1	0	1	0	1	1,420714964109720E+002	1,8291649E-001	1,8431360E-001	2,052664915655367E-003	1,000000000000000E+000	1,4567307E-004	41	1,1160792E+000	3,7833405E-007	-9,3176562E-001
2	1	0	1	0	1	1,450699963352236E+002	2,4288653E-001	2,4432448E-001	1,993085987921573E-003	1,000000000000000E+000	1,5189205E-004	41	1,0870736E+000	4,8695966E-007	-8,4274912E-001
2	1	0	0	0	1	1,480684962594751E+002	3,0285677E-001	3,0424169E-001	1,498479983540442E-003	1,000000000000000E+000	1,5780746E-004	41	1,0691165E+000	4,5590008E-007	-7,6487482E-001
2	0	0	0	0	1	1,510669961837266E+002	3,6282617E-001	3,6417523E-001	-5,680380412277754E-004	1,000000000000000E+000	1,5871406E-004	41	1,1072880E+000	-2,0686538E-007	-7,4311280E-001
2	0	0	1	0	1	1,540654961079781E+002	4,2279705E-001	4,2417252E-001	-7,462125064806669E-004	1,000000000000000E+000	1,5662766E-004	41	1,1308441E+000	-3,1652283E-007	-7,0667160E-001
2	0	0	1	0	1	1,570639960322296E+002	4,8276585E-001	4,8412660E-001	-5,400686033669813E-004	1,000000000000000E+000	1,5480032E-004	41	1,1426489E+000	-2,6146157E-007	-6,5852237E-001
2	0	0	0	0	1	1,600624959564811E+002	5,4273736E-001	5,4408634E-001	-3,291873436774342E-004	1,000000000000000E+000	1,5361489E-004	41	1,1479464E+000	-1,7910634E-007	-6,0386002E-001
2	0	0	0	0	1	1,630609958807327E+002	6,0270548E-001	6,0404021E-001	-4,497638635626042E-005	1,000000000000000E+000	1,5312998E-004	41	1,1459997E+000	-2,7167546E-008	-5,4195946E-001
2	1	0	0	0	1	1,660593958049867E+002	6,6267532E-001	6,6400808E-001	5,088570771014257E-004	1,000000000000000E+000	1,5385087E-004	41	1,1299279E+000	3,3788521E-007	-4,6591979E-001
2	1	0	1	0	1	1,690578957292382E+002	7,2264349E-001	7,2397071E-001	1,161503821664746E-003	1,000000000000000E+000	1,5663369E-004	41	1,0958899E+000	8,4089476E-007	-3,7191921E-001
2	1	0	1	0	1	1,720563956534897E+002	7,8261501E-001	7,8393883E-001	1,476564557155498E-003	1,000000000000000E+000	1,6068330E-004	41	1,0629387E+000	1,1575363E-006	-2,7899987E-001
2	1	0	0	0	1	1,750548955777413E+002	8,4258372E-001	8,4393281E-001	2,168826708958845E-003	1,000000000000000E+000	1,6607884E-004	41	1,0246060E+000	1,8303440E-006	-1,8067318E-001
2	1	0	0	0	1	1,780533955019928E+002	9,0255457E-001	9,0389663E-001	3,381466007819032E-003	1,000000000000000E+000	1,7439848E-004	41	9,7309083E-001	3,0564956E-006	-6,9194198E-002
2	1	0	1	0	1	1,808219954320521E+002	9,5792675E-001	9,5927554E-001	4,584491205796952E-003	2,000000000000000E+000	1,8556752E-004	41	9,2068577E-001	4,3977902E-006	3,8589776E-002
2	1	0	0	0	1	1,838204953563036E+002	1,0178959E+000	1,0192387E+000	5,368936016564935E-003	2,000000000000000E+000	2,0070626E-004	41	8,7366366E-001	5,4722273E-006	1,4557505E-001
2	1	0	0	0	1	1,868189952805551E+002	1,0778663E+000	1,0791978E+000	5,816767332011336E-003	2,000000000000000E+000	2,1757335E-004	41	8,3646935E-001	6,2774425E-006	2,4272841E-001
2	1	0	1	0	1	1,898174952048066E+002	1,1378360E+000	1,1391643E+000	6,250940487533121E-003	2,000000000000000E+000	2,3575558E-004	41	8,0340308E-001	7,1208483E-006	3,3576125E-001
2	1	0	1	0	1	1,928159951290581E+002	1,1978061E+000	1,1991472E+000	6,698029486997624E-003	2,000000000000000E+000	2,5525349E-004	41	7,7340049E-001	8,0319232E-006	4,2574674E-001
2	1	0	0	0	1	1,958144950533097E+002	1,2577763E+000	1,2591306E+000	7,156153011648542E-003	2,000000000000000E+000	2,7613042E-004	41	7,4618715E-001	9,0105314E-006	5,1294345E-001
2	1	0	0	0	1	1,988129949775612E+002	1,3177457E+000	1,3191047E+000	7,523116055700385E-003	2,000000000000000E+000	2,9826874E-004	41	7,2356927E-001	9,9237777E-006	5,9553540E-001
2	1	0	1	0	1	2,018114949018127E+002	1,3777165E+000	1,3790754E+000	7,677751202245293E-003	2,000000000000000E+000	3,2121493E-004	41	7,0806313E-001	1,0588198E-005	6,7101228E-001
2	1	0	1	0	1	2,048099948260642E+002	1,4376853E+000	1,4390433E+000	7,776455740289123E-003	2,000000000000000E+000	3,4445079E-004	41	6,9741297E-001	1,1190657E-005	7,4163032E-001
2	1	0	0	0	1	2,078084947503157E+002	1,4976568E+000	1,4990237E+000	8,461693993835118E-003	2,000000000000000E+000	3,6863401E-004	41	6,8014055E-001	1,2684280E-005	8,1888312E-001
2	1	0	0	0	1	2,108069946745673E+002	1,5576251E+000	1,5589676E+000	1,143197007548774E-002	2,000000000000000E+000	3,9763786E-004	41	6,2705815E-001	1,7822071E-005	9,3190944E-001
2	1	0	0	0	1	2,138053945988213E+002	1,6175947E+000	1,6189479E+000	2,184349746471920E-002	2,000000000000000E+000	4,4467862E-004	41	4,5902485E-001	3,5363482E-005	1,1599231E+000
2	1	0	1	0	1	2,168038945230728E+002	1,6775631E+000	1,6789510E+000	5,384343303949968E-002	2,000000000000000E+000	5,5011734E-004	41	-2,2852864E-002	9,0400485E-005	1,7018039E+000
2	1	0	1	0	1	2,192351944616530E+002	1,6737664E+000	1,6751497E+000	2,903793378361395E-002	2,000000000000000E+000	6,8522443E-004	41	3,5940003E-001	4,8642887E-005	1,3157496E+000
2	1	0	1	0	1	2,222336943859045E+002	1,6137948E+000	1,6151419E+000	4,751899726144208E-003	2,000000000000000E+000	7,2430598E-004	41	7,6891613E-001	7,6749920E-006	8,4622574E-001
2	1	0	0	0	1	2,252320943101586E+002	1,5538288E+000	1,5551960E+000	9,266478902790840E-004	2,000000000000000E+000	7,3112262E-004	41	8,5669661E-001	1,4411191E-006	6,9849944E-001
2	1	0	1	0	1	2,282305942344101E+002	1,4938570E+000	1,4951993E+000	1,558477928202300E-004	2,000000000000000E+000	7,3233328E-004	41	8,8599533E-001	2,3302351E-007	6,0920399E-001
2	1	0	1	0	1	2,312290941586616E+002	1,4338884E+000	1,4352269E+000	-6,088620295100544E-005	2,000000000000000E+000	7,3228643E-004	41	9,0061605E-001	-8,7385516E-008	5,3461087E-001
2	1	0	0	0	1	2,342275940829131E+002	1,3739175E+000	1,3752462E+000	-1,772171433505462E-004	2,000000000000000E+000	7,3178188E-004	41	9,1080296E-001	-2,4371721E-007	4,6444321E-001
2	0	0	0	0	1	2,372260940071646E+002	1,3139485E+000	1,3152761E+000	-2,783642797108293E-004	2,000000000000000E+000	7,3096174E-004	41	9,1947520E-001	-3,6612590E-007	3,9580095E-001
2	0	0	1	0	1	2,402245939314162E+002	1,2539778E+000	1,2553127E+000	-3,881607475760430E-004	2,000000000000000E+000	7,2983239E-004	41	9,2786235E-001	-4,8726309E-007	3,2745034E-001
2	0	0	1	0	1	2,432230938556677E+002	1,1940080E+000	1,1953318E+000	-5,232929770501373E-004	2,000000000000000E+000	7,2834437E-004	41	9,3673038E-001	-6,2550873E-007	2,5860143E-001
2	0	0	0	0	1	2,462215937799192E+002	1,1340381E+000	1,1353514E+000	-7,072203857950866E-004	2,000000000000000E+000	7,2638661E-004	41	9,4706833E-001	-8,0294365E-007	1,8828309E-001
2	0	0	0	0	1	2,492200937041707E+002	1,0740678E+000	1,0753883E+000	-9,719049854478960E-004	2,000000000000000E+000	7,2377099E-004	41	9,6003675E-001	-1,0451753E-006	1,1535156E-001
2	0	0	1	0	1	2,522185936284222E+002	1,0140984E+000	1,0153980E+000	-1,370651673096924E-003	2,000000000000000E+000	7,2018424E-004	41	9,7733867E-001	-1,3917570E-006	3,8059354E-002
2	0	0	1	0	1	2,552170935526738E+002	9,5412743E-001	9,5544344E-001	-2,009908727811580E-003	2,000000000000000E+000	7,1507966E-004	41	1,0019094E+000	-1,9203542E-006	-4,6465933E-002
2	0	0	0	0	1	2,582155934769253E+002	8,9415878E-001	8,9548671E-001	-3,156986885597887E-003	2,000000000000000E+000	7,0740131E-004	41	1,0397738E+000	-2,8270399E-006	-1,4428711E-001
2	0	0	0	0	1	2,612140934011768E+002	8,3418721E-001	8,3550525E-001	-5,672613913084212E-003	2,000000000000000E+000	6,9461722E-004	41	1,1082802E+000	-4,7394988E-006	-2,7277493E-001
2	0	0	1	0	1	2,642125933254283E+002	7,7421921E-001	7,7551275E-001	-1,344093597933170E-002	2,000000000000000E+000	6,6816370E-004	41	1,2785383E+000	-1,0423617E-005	-5,0302559E-001
2	0	0	0	0	1	2,672109932496824E+002	7,1424931E-001	7,1555704E-001	-2,334744076710193E-002	2,000000000000000E+000	6,0739758E-004	41	1,5319608E+000	-1,6706426E-005	-8,1640381E-001
2	0	0	0	0	1	2,702094931739339E+002	6,5428102E-001	6,5562081E-001	-7,448009238356567E-003	2,000000000000000E+000	5,6211924E-004	41	1,3641714E+000	-4,8830698E-006	-7,0855057E-001
2	0	0	1	0	1	2,732079930981854E+002	5,9430969E-001	5,9562981E-001	-3,042559929267635E-003	2,000000000000000E+000	5,4817228E-004	41	1,3060101E+000	-1,8122394E-006	-7,1038032E-001
2	0	0	1	0	1	2,762064930224369E+002	5,3434092E-001	5,3565782E-001	-2,228253240943681E-003	2,000000000000000E+000	5,4044178E-004	41	1,2981564E+000	-1,1935813E-006	-7,6249856E-001
2	0	0	0	0	1	2,792049929466884E+002	4,7437006E-001	4,7570807E-001	-2,106435822137617E-003	2,000000000000000E+000	5,3388870E-004	41	1,3039359E+000	-1,0020485E-006	-8,2822782E-001
2	0	0	0	0	1	2,822034928709400E+002	4,1440067E-001	4,1574562E-001	-2,195148491972610E-003	2,000000000000000E+000	5,2733405E-004	41	1,3156770E+000	-9,1262336E-007	-8,9993143E-001
2	0	0	1	0	1	2,852019927951915E+002	3,5443038E-001	3,5577580E-001	-2,377143344615196E-003	2,000000000000000E+000	5,2058481E-004	41	1,3300372E+000	-8,4573009E-007	-9,7426140E-001
2	0	0	1	0	1	2,882004927194430E+002	2,9446036E-001	2,9581979E-001	-3,886545098021570E-003	2,000000000000000E+000	5,1156379E-004	41	1,3742040E+000	-1,1497169E-006	-1,0783843E+000
2	0	0	0	0	1	2,911989926436945E+002	2,3449077E-001	2,3587310E-001	-5,060724471082996E-003	2,000000000000000E+000	4,9745291E-004	41	1,4233946E+000	-1,1936888E-006	-1,1875215E+000
2	0	0	0	0	1	2,941974925679460E+002	1,7452008E-001	1,7587095E-001	-6,131303787642248E-003	2,000000000000000E+000	4,8117168E-004	41	1,4693036E+000	-1,0783183E-006	-1,2934327E+000
2	0	0	1	0	1	2,971959924921975E+002	1,1455110E-001	1,1594182E-001	-9,401864128783660E-003	2,000000000000000E+000	4,5780305E-004	41	1,5628302E+000	-1,0900693E-006	-1,4468884E+000
2	0	0	1	0	1	3,001944924164491E+002	5,4579806E-002	5,5959493E-002	-1,211064993454813E-002	2,000000000000000E+000	4,2772508E-004	41	1,6455418E+000	-6,7770583E-007	-1,5895823E+000
2	0	0	0	0	0	3,029735923462431E+002	1,1003206E-002	1,2396943E-002	-3,934924319598873E-002	2,000000000000000E+000	3,0645981E-004	41	2,1379907E+000	-4,8781033E-007	-2,1255937E+000
2	1	0	1	0	0	3,059720922704946E+002	7,0972405E-002	7,2390661E-002	4,949017386618699E-003	2,000000000000000E+000	3,4395885E-004	41	1,1019105E+000	3,5826264E-007	-1,0295198E+000
2	1	0	1	0	0	3,089705921947461E+002	1,3094285E-001	1,3235356E-001	3,611665335994441E-003	2,000000000000000E+000	3,5570917E-004	41	1,0631135E+000	4,7801677E-007	-9,3075991E-001
2	1	0	0	0	0	3,119690921189977E+002	1,9091247E-001	1,9230437E-001	2,395357646265618E-003	2,000000000000000E+000	3,6430411E-004	41	1,0466964E+000	4,6063775E-007	-8,5439205E-001
2	1	0	0	0	0	3,149675920432492E+002	2,5088251E-001	2,5229412E-001	2,288841202307755E-003	2,000000000000000E+000	3,7161203E-004	41	1,0215869E+000	5,7746121E-007	-7,6929277E-001
2	1	0	1	0	0	3,179660919675007E+002	3,1085277E-001	3,1222394E-001	1,765308474801448E-003	2,000000000000000E+000	3,7863464E-004	41	1,0066358E+000	5,5117158E-007	-6,9441187E-001
2	0	0	1	0	0	3,209645918917522E+002	3,7082216E-001	3,7217373E-001	-3,651514023595781E-004	2,000000000000000E+000	3,7996081E-004	41	1,0466363E+000	-1,3589975E-007	-6,7446262E-001
2	0	0	0	0	0	3,239630918160037E+002	4,3079302E-001	4,3214759E-001	-5,094563651542993E-004	2,000000000000000E+000	3,7860361E-004	41	1,0641416E+000	-2,2016035E-007	-6,3199401E-001
2	0	0	0	0	0	3,269615917402552E+002	4,9076182E-001	4,9211711E-001	-3,863323842347634E-004	2,000000000000000E+000	3,7740471E-004	41	1,0724289E+000	-1,9012077E-007	-5,8031183E-001
2	0	0	1	0	0	3,299600916645068E+002	5,5073333E-001	5,5209064E-001	-2,539440140346585E-004	2,000000000000000E+000	3,7657979E-004	41	1,0764967E+000	-1,4020011E-007	-5,2440608E-001
2	0	0	1	0	0	3,329585915887583E+002	6,1070144E-001	6,1203152E-001	1,302239694742911E-006	2,000000000000000E+000	3,7629195E-004	41	1,0742631E+000	7,9701173E-010	-4,6223158E-001
2	1	0	1	0	0	3,359569915130123E+002	6,7067128E-001	6,7198628E-001	5,545825103437989E-004	2,000000000000000E+000	3,7718008E-004	41	1,0586878E+000	3,7267185E-007	-3,8670152E-001
2	1	0	0	0	0	3,389554914372638E+002	7,3063940E-001	7,3196781E-001	9,413774596266841E-004	2,000000000000000E+000	3,7974617E-004	41	1,0345407E+000	6,8905797E-007	-3,0257285E-001
2	1	0	0	0	0	3,419539913615154E+002	7,9061097E-001	7,9195738E-001	1,204944118414956E-003	2,000000000000000E+000	3,8301721E-004	41	1,0123969E+000	9,5426435E-007	-2,2043955E-001
2	1	0	1	0	0	3,449524912857669E+002	8,5057968E-001	8,5193861E-001	2,227733425995550E-003	2,000000000000000E+000	3,8801401E-004	41	9,7457284E-001	1,8978922E-006	-1,2263423E-001
2	1	0	1	0	0	3,479509912100184E+002	9,1055053E-001	9,1190505E-001	3,660848366276347E-003	2,000000000000000E+000	3,9693021E-004	41	9,2263681E-001	3,3383460E-006	-1,0731757E-002
2	1	0	0	0	0	3,507195911400777E+002	9,6592271E-001	9,6727961E-001	4,727920957074092E-003	3,000000000000000E+000	4,0877168E-004	41	8,7776816E-001	4,5732218E-006	8,9511454E-002
2	1	0	1	0	0	3,537180910643292E+002	1,0258919E+000	1,0272565E+000	5,188135955097449E-003	3,000000000000000E+000	4,2387712E-004	41	8,4338260E-001	5,3295462E-006	1,8387389E-001
2	1	0	1	0	0	3,567165909885807E+002	1,0858623E+000	1,0872248E+000	5,398928649874696E-003	3,000000000000000E+000	4,3981362E-004	41	8,1735957E-001	5,8698492E-006	2,6986527E-001
2	1	0	0	0	0	3,597150909128322E+002	1,1458319E+000	1,1471754E+000	5,668871563470120E-003	3,000000000000000E+000	4,5648549E-004	41	7,9338497E-001	6,5031900E-006	3,5379046E-001
2	1	0	0	0	0	3,627135908370838E+002	1,2058021E+000	1,2071177E+000	5,979107520001775E-003	3,000000000000000E+000	4,7402820E-004	41	7,7124953E-001	7,2174862E-006	4,3586814E-001
2	1	0	1	0	0	3,657120907613353E+002	1,2657725E+000	1,2671409E+000	6,295385312668977E-003	3,000000000000000E+000	4,9253897E-004	41	7,5143415E-001	7,9771398E-006	5,1570672E-001
2	1	0	1	0	0	3,687105906855868E+002	1,3257416E+000	1,3270893E+000	6,516890420850047E-003	3,000000000000000E+000	5,1187898E-004	41	7,3590434E-001	8,6484952E-006	5,9118497E-001
2	1	0	0	0	0	3,717090906098383E+002	1,3857125E+000	1,3870631E+000	6,624369170109154E-003	3,000000000000000E+000	5,3171633E-004	41	7,2542936E-001	9,1884185E-006	6,6163379E-001
2	1	0	0	0	0	3,747075905340898E+002	1,4456812E+000	1,4470447E+000	6,839211302066023E-003	3,000000000000000E+000	5,5192504E-004	41	7,1605086E-001	9,8966448E-006	7,3099387E-001
2	1	0	1	0	0	3,777060904583414E+002	1,5056525E+000	1,5070107E+000	7,916383367094909E-003	3,000000000000000E+000	5,7379692E-004	41	6,9401282E-001	1,1930075E-005	8,1299788E-001
2	1	0	1	0	0	3,807045903825929E+002	1,5656209E+000	1,5669622E+000	1,203004520727535E-002	3,000000000000000E+000	6,0258911E-004	41	6,2292522E-001	1,8850627E-005	9,4403702E-001
2	1	0	1	0	0	3,837029903068469E+002	1,6255907E+000	1,6269357E+000	2,592991729646843E-002	3,000000000000000E+000	6,5572164E-004	41	4,0223503E-001	4,2186308E-005	1,2247007E+000
2	1	0	0	0	0	3,867014902310984E+002	1,6855590E+000	1,6869068E+000	6,833198071694613E-002	3,000000000000000E+000	7,8637991E-004	41	-2,2884315E-001	1,1526969E-004	1,9157500E+000
2	1	0	0	0	0	3,891327901696786E+002	1,6657704E+000	1,6671443E+000	2,439453906342887E-002	3,000000000000000E+000	9,2279591E-004	41	4,4225127E-001	4,0669216E-005	1,2248931E+000
2	1	0	1	0	0	3,921311900939327E+002	1,6058006E+000	1,6071323E+000	3,976269698569415E-003	3,000000000000000E+000	9,5570460E-004	41	7,9270911E-001	6,3903917E-006	8,1442320E-001
2	1	0	1	0	0	3,951296900181842E+002	1,5458329E+000	1,5471765E+000	7,238996714592130E-004	3,000000000000000E+000	9,6127501E-004	41	8,7014645E-001	1,1200005E-006	6,7703003E-001
2	1	0	0	0	0	3,981281899424357E+002	1,4858609E+000	1,4872110E+000	7,563312809108300E-005	3,000000000000000E+000	9,6208992E-004	41	8,9652556E-001	1,1248242E-007	5,9068543E-001
2	1	0	0	0	0	4,011266898666872E+002	1,4258926E+000	1,4272392E+000	-1,108873365655745E-004	3,000000000000000E+000	9,6184120E-004	41	9,1019022E-001	-1,5826275E-007	5,1704895E-001
2	0	0	1	0	0	4,041251897909387E+002	1,3659215E+000	1,3672698E+000	-2,188329147746536E-004	3,000000000000000E+000	9,6118660E-004	41	9,2001975E-001	-2,9920363E-007	4,4725001E-001
2	0	0	1	0	0	4,071236897151903E+002	1,3059524E+000	1,3072934E+000	-3,178186316110383E-004	3,000000000000000E+000	9,6023257E-004	41	9,2857045E-001	-4,1548219E-007	3,7872297E-001
2	0	0	0	0	0	4,101221896394418E+002	1,2459818E+000	1,2473296E+000	-4,246149152653264E-004	3,000000000000000E+000	9,5897570E-004	41	9,3691033E-001	-5,2963475E-007	3,1041926E-001
2	0	0	0	0	0	4,131206895636933E+002	1,1860120E+000	1,1873168E+000	-5,627793668513625E-004	3,000000000000000E+000	9,5735735E-004	41	9,4583511E-001	-6,6819740E-007	2,4148166E-001
2	0	0	1	0	0	4,161191894879448E+002	1,1260421E+000	1,1273584E+000	-7,574072759037628E-004	3,000000000000000E+000	9,5525506E-004	41	9,5640135E-001	-8,5386949E-007	1,7095709E-001
2	0	0	1	0	0	4,191176894121963E+002	1,0660717E+000	1,0674136E+000	-1,037651295524675E-003	3,000000000000000E+000	9,5245958E-004	41	9,6974790E-001	-1,1076031E-006	9,7665668E-002
2	0	0	0	0	0	4,221161893364479E+002	1,0061024E+000	1,0074352E+000	-1,465861827759023E-003	3,000000000000000E+000	9,4862597E-004	41	9,8784679E-001	-1,4767608E-006	1,9588411E-002
2	0	0	0	0	0	4,251146892606994E+002	9,4613171E-001	9,4745672E-001	-2,165050013923913E-003	3,000000000000000E+000	9,4315381E-004	41	1,0138824E+000	-2,0512912E-006	-6,6425681E-002
2	0	0	1	0	0	4,281131891849509E+002	8,8616282E-001	8,8751197E-001	-3,451118367614851E-003	3,000000000000000E+000	9,3483261E-004	41	1,0549269E+000	-3,0629089E-006	-1,6741490E-001
2	0	0	1	0	0	4,311116891092024E+002	8,2619131E-001	8,2753408E-001	-6,458442709918577E-003	3,000000000000000E+000	9,2059345E-004	41	1,1334196E+000	-5,3445815E-006	-3,0588555E-001
2	0	0	0	0	0	4,341101890334539E+002	7,6622313E-001	7,6752150E-001	-1,647690474803210E-002	3,000000000000000E+000	8,8909786E-004	41	1,3455906E+000	-1,2646378E-005	-5,7806909E-001
2	0	0	1	0	0	4,371085889577080E+002	7,0625335E-001	7,0758975E-001	-2,164856143459154E-002	3,000000000000000E+000	8,2164985E-004	41	1,5415635E+000	-1,5318301E-005	-8,3397377E-001
2	0	0	1	0	0	4,401070888819595E+002	6,4628500E-001	6,4763367E-001	-5,849459749133069E-003	3,000000000000000E+000	7,8446645E-004	41	1,3586816E+000	-3,7883071E-006	-7,1104789E-001
2	0	0	0	0	0	4,431055888062110E+002	5,8631372E-001	5,8763468E-001	-2,644815164063688E-003	3,000000000000000E+000	7,7292469E-004	41	1,3151962E+000	-1,5541851E-006	-7,2756147E-001
2	0	0	0	0	0	4,461040887304625E+002	5,2634478E-001	5,2768582E-001	-1,996068739694637E-003	3,000000000000000E+000	7,6605886E-004	41	1,3090327E+000	-1,0532972E-006	-7,8134686E-001
2	0	0	1	0	0	4,491025886547141E+002	4,6637404E-001	4,6770868E-001	-1,892307360369098E-003	3,000000000000000E+000	7,6015049E-004	41	1,3141353E+000	-8,8504856E-007	-8,4642661E-001
2	0	0	1	0	0	4,521010885789656E+002	4,0640470E-001	4,0774480E-001	-1,993215109418217E-003	3,000000000000000E+000	7,5422705E-004	41	1,3251653E+000	-8,1272310E-007	-9,1742051E-001
2	0	0	0	0	0	4,550995885032171E+002	3,4643444E-001	3,4779313E-001	-2,516954208784449E-003	3,000000000000000E+000	7,4753992E-004	41	1,3465059E+000	-8,7537938E-007	-9,9871278E-001
2	0	0	0	0	0	4,580980884274686E+002	2,8646439E-001	2,8781512E-001	-4,601254742070487E-003	3,000000000000000E+000	7,3723349E-004	41	1,4049662E+000	-1,3243107E-006	-1,1171511E+000
2	0	0	1	0	0	4,610965883517201E+002	2,2649476E-001	2,2788745E-001	-4,984427835106067E-003	3,000000000000000E+000	7,2223466E-004	41	1,4413897E+000	-1,1358885E-006	-1,2135022E+000
2	0	0	1	0	0	4,640950882759716E+002	1,6652410E-001	1,6789834E-001	-6,207781763091599E-003	3,000000000000000E+000	7,0615322E-004	41	1,4884770E+000	-1,0422763E-006	-1,3205787E+000
2	0	0	0	0	0	4,670935882002232E+002	1,0655512E-001	1,0794130E-001	-9,435636708206491E-003	3,000000000000000E+000	6,8197027E-004	41	1,5811907E+000	-1,0184949E-006	-1,4732494E+000
2	0	0	0	0	0	4,700920881244747E+002	4,6583831E-002	4,7992352E-002	-1,367838923338535E-002	3,000000000000000E+000	6,5208785E-004	41	1,6814492E+000	-6,5645810E-007	-1,6334568E+000
2	1	0	1	0	1	4,728711880542687E+002	1,8999184E-002	2,0403111E-002	2,363760670618431E-002	3,000000000000000E+000	5,3540803E-004	41	1,1749833E+000	4,8228071E-007	-1,1545801E+000
2	1	0	0	0	1	4,758696879785202E+002	7,8968383E-002	8,0382489E-002	4,589022479042859E-003	3,000000000000000E+000	5,7945651E-004	41	1,0837913E+000	3,6887704E-007	-1,0034088E+000
2	1	0	0	0	1	4,788681879027718E+002	1,3893883E-001	1,4036988E-001	3,720116743224609E-003	3,000000000000000E+000	5,9188018E-004	41	1,0389378E+000	5,2219235E-007	-8,9856791E-001
2	1	0	1	0	1	4,818666878270233E+002	1,9890867E-001	2,0033184E-001	2,601886898568679E-003	3,000000000000000E+000	6,0063251E-004	41	1,0241060E+000	5,2124079E-007	-8,2377422E-001
2	1	0	1	0	1	4,848651877512748E+002	2,5887847E-001	2,6030731E-001	2,471635116467445E-003	3,000000000000000E+000	6,0844159E-004	41	9,9997169E-001	6,4338468E-007	-7,3966438E-001
2	1	0	0	0	1	4,878636876755263E+002	3,1884873E-001	3,2024476E-001	1,796830725140940E-003	3,000000000000000E+000	6,1601744E-004	41	9,8772544E-001	5,7542564E-007	-6,6748071E-001
2	0	0	0	0	1	4,908621875997778E+002	3,7881812E-001	3,8020912E-001	-2,248767901432336E-004	3,000000000000000E+000	6,1746687E-004	41	1,0266109E+000	-8,5500204E-008	-6,4640176E-001
2	0	0	1	0	1	4,938606875240293E+002	4,3878901E-001	4,4017735E-001	-3,341777441639507E-004	3,000000000000000E+000	6,1662012E-004	41	1,0406351E+000	-1,4709748E-007	-6,0045779E-001
2	0	0	1	0	1	4,968591874482809E+002	4,9875781E-001	5,0013548E-001	-2,320589352323831E-004	3,000000000000000E+000	6,1592943E-004	41	1,0463836E+000	-1,1606091E-007	-5,4624814E-001
2	0	0	0	0	1	4,998576873725324E+002	5,5872929E-001	5,6010497E-001	-1,293103706484444E-004	3,000000000000000E+000	6,1552413E-004	41	1,0489032E+000	-7,2427383E-008	-4,8879826E-001
2	0	0	0	0	1	5,028561872967839E+002	6,1869740E-001	6,2008160E-001	1,200730854852718E-004	3,000000000000000E+000	6,1560411E-004	41	1,0452288E+000	7,4455109E-008	-4,2514724E-001
2	1	0	0	0	1	5,058545872210379E+002	6,7866725E-001	6,8003291E-001	6,609096169820092E-004	3,000000000000000E+000	6,1686558E-004	41	1,0286477E+000	4,4944028E-007	-3,4861475E-001
2	1	0	1	0	1	5,088530871452895E+002	7,3863560E-001	7,3997128E-001	8,632612599177303E-004	3,000000000000000E+000	6,1940373E-004	41	1,0103389E+000	6,3878855E-007	-2,7036762E-001
2	1	0	1	0	1	5,118515870695410E+002	7,9860693E-001	7,9995358E-001	1,175933780551100E-003	3,000000000000000E+000	6,2244153E-004	41	9,9152148E-001	9,4069242E-007	-1,9156790E-001
2	1	0	0	0	1	5,148500869937925E+002	8,5857570E-001	8,5995108E-001	2,547676206562868E-003	3,000000000000000E+000	6,2787818E-004	41	9,4826251E-001	2,1908770E-006	-8,8311434E-002
2	1	0	0	0	1	5,178485869180440E+002	9,1854650E-001	9,1988957E-001	3,973053405628119E-003	3,000000000000000E+000	6,3781836E-004	41	8,9690167E-001	3,6547704E-006	2,2987902E-002
2	1	0	1	0	1	5,206171868481033E+002	9,7391868E-001	9,7526371E-001	4,754903749767040E-003	4,000000000000000E+000	6,5016950E-004	41	8,5923189E-001	4,6372852E-006	1,1603183E-001
2	1	0	0	0	1	5,236156867723548E+002	1,0338879E+000	1,0352575E+000	4,989684682332546E-003	4,000000000000000E+000	6,6496019E-004	41	8,3228409E-001	5,1656084E-006	2,0297337E-001
2	1	0	0	0	1	5,266141866966063E+002	1,0938582E+000	1,0952109E+000	5,144881730717421E-003	4,000000000000000E+000	6,8021519E-004	41	8,1041932E-001	5,6347308E-006	2,8479159E-001
2	1	0	1	0	1	5,296126866208579E+002	1,1538281E+000	1,1551836E+000	5,374578475318886E-003	4,000000000000000E+000	6,9606584E-004	41	7,8984481E-001	6,2086247E-006	3,6533874E-001
2	1	0	1	0	1	5,326111865451094E+002	1,2137980E+000	1,2151352E+000	5,637230585929728E-003	4,000000000000000E+000	7,1265333E-004	41	7,7094978E-001	6,8499976E-006	4,4418544E-001
2	1	0	0	0	1	5,356096864693609E+002	1,2737682E+000	1,2751399E+000	5,888154548775060E-003	4,000000000000000E+000	7,3004235E-004	41	7,5456291E-001	7,5082212E-006	5,2057701E-001
2	1	0	0	0	1	5,386081863936124E+002	1,3337376E+000	1,3350971E+000	6,047813617777564E-003	4,000000000000000E+000	7,4805878E-004	41	7,4236983E-001	8,0744185E-006	5,9272724E-001
2	1	0	1	0	1	5,416066863178639E+002	1,3937086E+000	1,3950642E+000	6,118415137402564E-003	4,000000000000000E+000	7,6641003E-004	41	7,3441893E-001	8,5355823E-006	6,6064531E-001
2	1	0	1	0	1	5,446051862421155E+002	1,4536772E+000	1,4550494E+000	6,413252752840021E-003	4,000000000000000E+000	7,8518799E-004	41	7,2508013E-001	9,3315994E-006	7,2996926E-001
2	1	0	0	0	1	5,476036861663670E+002	1,5136487E+000	1,5150181E+000	7,838619212486714E-003	4,000000000000000E+000	8,0622133E-004	41	6,9780660E-001	1,1875650E-005	8,1721151E-001
2	1	0	0	0	1	5,506021860906185E+002	1,5736169E+000	1,5749978E+000	1,306408682068114E-002	4,000000000000000E+000	8,3614036E-004	41	6,0886264E-001	2,0575908E-005	9,6613514E-001
2	1	0	0	0	1	5,536005860148725E+002	1,6335866E+000	1,6349592E+000	3,039446957266401E-002	4,000000000000000E+000	8,9661224E-004	41	3,3732209E-001	4,9693717E-005	1,2976371E+000
2	1	0	1	0	1	5,565990859391241E+002	1,6935551E+000	1,6949365E+000	8,277313419329543E-002	4,000000000000000E+000	1,0532158E-003	41	-4,3576038E-001	1,4029520E-004	2,1306968E+000
2	1	0	1	0	1	5,590303858777042E+002	1,6577744E+000	1,6591680E+000	1,970517967002514E-002	4,000000000000000E+000	1,1754290E-003	41	5,2255899E-001	3,2694203E-005	1,1366091E+000
2	1	0	0	0	1	5,620287858019583E+002	1,5978047E+000	1,5991689E+000	3,236808273539643E-003	4,000000000000000E+000	1,2021633E-003	41	8,1245887E-001	5,1762031E-006	7,8671002E-001
2	1	0	0	0	1	5,650272857262098E+002	1,5378370E+000	1,5392046E+000	5,526490123395657E-004	4,000000000000000E+000	1,2066000E-003	41	8,7953073E-001	8,5063988E-007	6,5967387E-001
2	1	0	1	0	1	5,680257856504613E+002	1,4778650E+000	1,4792535E+000	1,387541881620949E-005	4,000000000000000E+000	1,2071038E-003	41	9,0336508E-001	2,0525261E-008	5,7588845E-001
2	1	0	1	0	1	5,710242855747128E+002	1,4178962E+000	1,4192599E+000	-1,502946986524045E-004	4,000000000000000E+000	1,2067106E-003	41	9,1629952E-001	-2,1330725E-007	5,0296038E-001
2	0	0	0	0	1	5,740227854989644E+002	1,3579255E+000	1,3592842E+000	-2,506435005667248E-004	4,000000000000000E+000	1,2059503E-003	41	9,2586440E-001	-3,4069575E-007	4,3341976E-001
2	0	0	0	0	1	5,770212854232159E+002	1,2979562E+000	1,2993098E+000	-3,481353251742281E-004	4,000000000000000E+000	1,2049000E-003	41	9,3436503E-001	-4,5233566E-007	3,6494482E-001
2	0	0	1	0	1	5,800197853474674E+002	1,2379858E+000	1,2393457E+000	-4,566086998206553E-004	4,000000000000000E+000	1,2035494E-003	41	9,4273198E-001	-5,6589602E-007	2,9661369E-001
2	0	0	1	0	1	5,830182852717189E+002	1,1780159E+000	1,1793367E+000	-6,014628859181206E-004	4,000000000000000E+000	1,2018308E-003	41	9,5184201E-001	-7,0932725E-007	2,2749466E-001
2	0	0	0	0	1	5,860167851959704E+002	1,1180462E+000	1,1193862E+000	-8,023094022575252E-004	4,000000000000000E+000	1,1996076E-003	41	9,6263099E-001	-8,9809407E-007	1,5675521E-001
2	0	0	0	0	1	5,890152851202220E+002	1,0580757E+000	1,0594156E+000	-1,101771625572203E-003	4,000000000000000E+000	1,1966516E-003	41	9,7657788E-001	-1,1672340E-006	8,2837701E-002
2	0	0	1	0	1	5,920137850444735E+002	9,9810654E-001	9,9942589E-001	-1,557450722647714E-003	4,000000000000000E+000	1,1925891E-003	41	9,9550134E-001	-1,5565565E-006	3,9245486E-003
2	0	0	1	0	1	5,950122849687250E+002	9,3813539E-001	9,3946236E-001	-2,315629725163823E-003	4,000000000000000E+000	1,1867628E-003	41	1,0231056E+000	-2,1754470E-006	-8,3643258E-002
2	0	0	0	0	1	5,980107848929765E+002	8,7816685E-001	8,7949842E-001	-3,754182596565320E-003	4,000000000000000E+000	1,1778015E-003	41	1,0677075E+000	-3,3017977E-006	-1,8820912E-001
2	0	0	0	0	1	6,010092848172280E+002	8,1819510E-001	8,1951946E-001	-7,320546760536728E-003	4,000000000000000E+000	1,1620258E-003	41	1,1574558E+000	-5,9993304E-006	-3,3793634E-001
2	0	0	1	0	1	6,040077847414796E+002	7,5822717E-001	7,5956541E-001	-1,953605031043193E-002	4,000000000000000E+000	1,1250376E-003	41	1,4116920E+000	-1,4838908E-005	-6,5212661E-001
2	0	0	0	0	1	6,070061846657336E+002	6,9825739E-001	6,9959325E-001	-1,864690935255534E-002	4,000000000000000E+000	1,0550640E-003	41	1,5237355E+000	-1,3045252E-005	-8,2414228E-001
2	0	0	0	0	1	6,100046845899851E+002	6,3828909E-001	6,3964707E-001	-4,836427995728129E-003	4,000000000000000E+000	1,0248186E-003	41	1,3561710E+000	-3,0936069E-006	-7,1652395E-001
2	0	0	1	0	1	6,130031845142366E+002	5,7831776E-001	5,7965189E-001	-2,407531955296261E-003	4,000000000000000E+000	1,0147865E-003	41	1,3229293E+000	-1,3955305E-006	-7,4327737E-001
2	0	0	1	0	1	6,160016844384882E+002	5,1834881E-001	5,1970232E-001	-1,883386398974174E-003	4,000000000000000E+000	1,0083985E-003	41	1,3186587E+000	-9,7880024E-007	-7,9895639E-001
2	0	0	0	0	1	6,190001843627397E+002	4,5837808E-001	4,5975187E-001	-1,800517977892907E-003	4,000000000000000E+000	1,0027830E-003	41	1,3240445E+000	-8,2779150E-007	-8,6429262E-001
2	0	0	0	0	1	6,219986842869912E+002	3,9840847E-001	3,9978647E-001	-1,931589725206344E-003	4,000000000000000E+000	9,9710515E-004	41	1,3354176E+000	-7,7222342E-007	-9,3563116E-001
2	0	0	1	0	1	6,249971842112427E+002	3,3843845E-001	3,3979568E-001	-2,676244089788372E-003	4,000000000000000E+000	9,9037553E-004	41	1,3614942E+000	-9,0937618E-007	-1,0216985E+000
2	0	0	1	0	1	6,279956841354942E+002	2,7846822E-001	2,7983409E-001	-4,937932779027172E-003	4,000000000000000E+000	9,7891584E-004	41	1,4269665E+000	-1,3818019E-006	-1,1471324E+000
2	0	0	0	0	1	6,309941840597457E+002	2,1849880E-001	2,1986412E-001	-4,810848202435873E-003	4,000000000000000E+000	9,6414605E-004	41	1,4528074E+000	-1,0577329E-006	-1,2329433E+000
2	0	0	0	0	1	6,339926839839973E+002	1,5852813E-001	1,5989216E-001	-6,504205254005468E-003	4,000000000000000E+000	9,4802654E-004	41	1,5077620E+000	-1,0399714E-006	-1,3478698E+000
2	0	0	1	0	1	6,369911839082488E+002	9,8559149E-002	9,9926494E-002	-9,072589055071301E-003	4,000000000000000E+000	9,2306646E-004	41	1,5889648E+000	-9,0659199E-007	-1,4890383E+000
2	0	0	1	0	1	6,399896838325003E+002	3,8587853E-002	3,9981764E-002	-1,770387163630593E-002	4,000000000000000E+000	8,9198234E-004	41	1,7534736E+000	-7,0783199E-007	-1,7134919E+000
2	1	0	0	0	0	6,427687837622943E+002	2,6995160E-002	2,8430078E-002	3,173022461634334E-002	4,000000000000000E+000	7,9573737E-004	41	9,1927457E-001	9,0209278E-007	-8,9084446E-001
2	1	0	1	0	0	6,457672836865459E+002	8,6964354E-002	8,8406503E-002	4,275294973382807E-003	4,000000000000000E+000	8,2961499E-004	41	1,0766760E+000	3,7796389E-007	-9,8826951E-001
2	1	0	1	0	0	6,487657836107974E+002	1,4693482E-001	1,4835964E-001	3,436086992064304E-003	4,000000000000000E+000	8,4183674E-004	41	1,0340794E+000	5,0977661E-007	-8,8571978E-001
2	1	0	0	0	0	6,517642835350489E+002	2,0690463E-001	2,0833018E-001	2,685931066491376E-003	4,000000000000000E+000	8,5019815E-004	41	1,0163209E+000	5,5956053E-007	-8,0799079E-001
2	1	0	0	0	0	6,547627834593004E+002	2,6687443E-001	2,6826337E-001	2,500373864517826E-003	4,000000000000000E+000	8,5790525E-004	41	9,9406260E-001	6,7075871E-007	-7,2579920E-001
2	1	0	1	0	0	6,577612833835519E+002	3,2684490E-001	3,2822406E-001	1,469525637860294E-003	4,000000000000000E+000	8,6534204E-004	41	9,8839712E-001	4,8233369E-007	-6,6017306E-001
2	0	0	1	0	0	6,607597833078034E+002	3,8681409E-001	3,8816279E-001	-2,465590637700063E-004	4,000000000000000E+000	8,6632004E-004	41	1,0246605E+000	-9,5705055E-008	-6,3649768E-001
2	0	0	0	0	0	6,637582832320550E+002	4,4678500E-001	4,4816470E-001	-3,124171576512980E-004	4,000000000000000E+000	8,6550997E-004	41	1,0373602E+000	-1,4001434E-007	-5,8919549E-001
2	0	0	0	0	0	6,667567831563065E+002	5,0675374E-001	5,0810748E-001	-2,280047853784137E-004	4,000000000000000E+000	8,6486142E-004	41	1,0430888E+000	-1,1585094E-007	-5,3498131E-001
2	0	0	1	0	0	6,697552830805580E+002	5,6672525E-001	5,6806666E-001	-1,308540533459277E-004	4,000000000000000E+000	8,6445425E-004	41	1,0457771E+000	-7,4333826E-008	-4,7771043E-001
2	0	0	1	0	0	6,727537830048095E+002	6,2669337E-001	6,2806016E-001	1,445668787477287E-004	4,000000000000000E+000	8,6456130E-004	41	1,0415922E+000	9,0796696E-008	-4,1353208E-001
2	1	0	1	0	0	6,757521829290636E+002	6,8666327E-001	6,8800086E-001	6,786920102591547E-004	4,000000000000000E+000	8,6593599E-004	41	1,0244119E+000	4,6694069E-007	-3,3641106E-001
2	1	0	0	0	0	6,787506828533151E+002	7,4663162E-001	7,4796909E-001	7,851727541903089E-004	4,000000000000000E+000	8,6829212E-004	41	1,0091903E+000	5,8728494E-007	-2,6122123E-001
2	1	0	0	0	0	6,817491827775666E+002	8,0660290E-001	8,0796146E-001	1,236260255434007E-003	4,000000000000000E+000	8,7120140E-004	41	9,8878360E-001	9,9885062E-007	-1,8082213E-001
2	1	0	1	0	0	6,847476827018181E+002	8,6657190E-001	8,6792839E-001	2,899699843212875E-003	4,000000000000000E+000	8,7735773E-004	41	9,3743539E-001	2,5167319E-006	-6,9507003E-002
2	1	0	1	0	0	6,877461826260696E+002	9,2654246E-001	9,2789066E-001	4,248090078666195E-003	4,000000000000000E+000	8,8826998E-004	41	8,8611358E-001	3,9417632E-006	4,1777074E-002
2	1	0	0	0	0	6,905147825561289E+002	9,8191470E-001	9,8323488E-001	4,778478809161619E-003	5,000000000000000E+000	9,0101903E-004	41	8,5311168E-001	4,6983669E-006	1,3012320E-001
2	1	0	1	0	0	6,935132824803804E+002	1,0418837E+000	1,0432378E+000	4,880985223230340E-003	5,000000000000000E+000	9,1561815E-004	41	8,2966584E-001	5,0920285E-006	2,1357197E-001
2	1	0	1	0	0	6,965117824046320E+002	1,1018543E+000	1,1031973E+000	5,016240676795562E-003	5,000000000000000E+000	9,3051820E-004	41	8,0919272E-001	5,5339033E-006	2,9400462E-001
2	1	0	0	0	0	6,995102823288835E+002	1,1618242E+000	1,1631659E+000	5,220065293178533E-003	5,000000000000000E+000	9,4593386E-004	41	7,8998518E-001	6,0718021E-006	3,7318075E-001
2	1	0	0	0	0	7,025087822531350E+002	1,2217940E+000	1,2231393E+000	5,455632516123729E-003	5,000000000000000E+000	9,6201990E-004	41	7,7243418E-001	6,6729986E-006	4,5070511E-001
2	1	0	1	0	0	7,055072821773865E+002	1,2817643E+000	1,2831254E+000	5,662140213240630E-003	5,000000000000000E+000	9,7880058E-004	41	7,5770158E-001	7,2652360E-006	5,2542382E-001
2	1	0	1	0	0	7,085057821016380E+002	1,3417336E+000	1,3430891E+000	5,769183194946931E-003	5,000000000000000E+000	9,9606323E-004	41	7,4728596E-001	7,7485274E-006	5,9580314E-001
2	1	0	0	0	0	7,115042820258896E+002	1,4017045E+000	1,4030540E+000	5,819614156293937E-003	5,000000000000000E+000	1,0135275E-003	41	7,4048406E-001	8,1652333E-006	6,6256994E-001
2	1	0	0	0	0	7,145027819501411E+002	1,4616731E+000	1,4630404E+000	6,213016994399634E-003	5,000000000000000E+000	1,0315152E-003	41	7,2995245E-001	9,0898948E-006	7,3308790E-001
2	1	0	1	0	0	7,175012818743926E+002	1,5216448E+000	1,5230049E+000	8,002555678170820E-003	5,000000000000000E+000	1,0523875E-003	41	6,9659597E-001	1,2187931E-005	8,2640892E-001
2	1	0	1	0	0	7,204997817986441E+002	1,5816128E+000	1,5829676E+000	1,442381787918542E-002	5,000000000000000E+000	1,0842627E-003	41	5,8859426E-001	2,2832437E-005	9,9437338E-001
2	1	0	1	0	0	7,234981817228982E+002	1,6415826E+000	1,6429533E+000	3,549942861539901E-002	5,000000000000000E+000	1,1534096E-003	41	2,6214784E-001	5,8323902E-005	1,3808055E+000
2	1	0	0	0	0	7,264067816494207E+002	1,6997541E+000	1,7011636E+000	9,538698475807861E-002	5,000000000000000E+000	1,3297285E-003	41	-6,1657941E-001	1,6226887E-004	2,3177431E+000
2	1	0	0	0	0	7,289279815857299E+002	1,6497785E+000	1,6511567E+000	1,571699800621305E-002	5,000000000000000E+000	1,4354270E-003	41	5,9097415E-001	2,5951225E-005	1,0601826E+000
2	1	0	1	0	0	7,319263815099839E+002	1,5898087E+000	1,5911587E+000	2,602093469395557E-003	5,000000000000000E+000	1,4568612E-003	41	8,2885569E-001	4,1403437E-006	7,6230305E-001
2	1	0	1	0	0	7,349248814342354E+002	1,5298409E+000	1,5311983E+000	4,156360754250933E-004	5,000000000000000E+000	1,4603433E-003	41	8,8664389E-001	6,3642125E-007	6,4455438E-001
2	1	0	0	0	0	7,379233813584869E+002	1,4698691E+000	1,4712480E+000	-3,348287601908834E-005	5,000000000000000E+000	1,4606046E-003	41	9,0827823E-001	-4,9261615E-008	5,6296980E-001
2	0	0	0	0	0	7,409218812827385E+002	1,4099005E+000	1,4112514E+000	-1,776265870926134E-004	5,000000000000000E+000	1,4601042E-003	41	9,2047864E-001	-2,5067578E-007	4,9077278E-001
2	0	0	1	0	0	7,439203812069900E+002	1,3499293E+000	1,3512892E+000	-2,751211662791577E-004	5,000000000000000E+000	1,4592636E-003	41	9,2985260E-001	-3,7176824E-007	4,2143655E-001
2	0	0	1	0	0	7,469188811312415E+002	1,2899603E+000	1,2913127E+000	-3,720094669838789E-004	5,000000000000000E+000	1,4581382E-003	41	9,3829697E-001	-4,8038055E-007	3,5301572E-001
2	0	0	0	0	0	7,499173810554930E+002	1,2299899E+000	1,2313452E+000	-4,848524612347258E-004	5,000000000000000E+000	1,4567104E-003	41	9,4670177E-001	-5,9702074E-007	2,8464341E-001
2	0	0	0	0	0	7,529158809797445E+002	1,1700203E+000	1,1713568E+000	-6,324893494265415E-004	5,000000000000000E+000	1,4549013E-003	41	9,5591146E-001	-7,4087069E-007	2,1544534E-001
2	0	0	1	0	0	7,559143809039961E+002	1,1100502E+000	1,1114117E+000	-8,462497782391765E-004	5,000000000000000E+000	1,4525655E-003	41	9,6708471E-001	-9,4053189E-007	1,4432698E-001
2	0	0	1	0	0	7,589128808282476E+002	1,0500797E+000	1,0514249E+000	-1,160461902437971E-003	5,000000000000000E+000	1,4494564E-003	41	9,8152745E-001	-1,2201385E-006	6,9897413E-002
2	0	0	0	0	0	7,619113807524991E+002	9,9011058E-001	9,9141216E-001	-1,646049788707801E-003	5,000000000000000E+000	1,4451749E-003	41	1,0013986E+000	-1,6319137E-006	-9,9864006E-003
2	0	0	0	0	0	7,649098806767506E+002	9,3013948E-001	9,3146050E-001	-2,472213685000254E-003	5,000000000000000E+000	1,4389934E-003	41	1,0307728E+000	-2,3027694E-006	-9,9312305E-002
2	0	0	1	0	0	7,679083806010021E+002	8,7017089E-001	8,7149733E-001	-4,073361456644376E-003	5,000000000000000E+000	1,4293633E-003	41	1,0791794E+000	-3,5499236E-006	-2,0768207E-001
2	0	0	1	0	0	7,709068805252537E+002	8,1019914E-001	8,1152564E-001	-8,308344320192437E-003	5,000000000000000E+000	1,4118789E-003	41	1,1821676E+000	-6,7424344E-006	-3,7064201E-001
2	0	0	0	0	0	7,739053804495052E+002	7,5023121E-001	7,5156569E-001	-2,251487106779232E-002	5,000000000000000E+000	1,3687554E-003	41	1,4765753E+000	-1,6921405E-005	-7,2500956E-001
2	0	0	1	0	0	7,769037803737592E+002	6,9026142E-001	6,9159502E-001	-1,547733497170715E-002	5,000000000000000E+000	1,2994836E-003	41	1,4971980E+000	-1,0704048E-005	-8,0560297E-001
2	0	0	1	0	0	7,799022802980107E+002	6,3029313E-001	6,3166064E-001	-4,191834077253306E-003	5,000000000000000E+000	1,2746591E-003	41	1,3565242E+000	-2,6478167E-006	-7,2486359E-001
2	0	0	0	0	0	7,829007802222623E+002	5,7032174E-001	5,7168746E-001	-2,308790549391310E-003	5,000000000000000E+000	1,2654844E-003	41	1,3316061E+000	-1,3199066E-006	-7,5991869E-001
2	0	0	0	0	0	7,858992801465138E+002	5,1035279E-001	5,1169658E-001	-1,888773572087589E-003	5,000000000000000E+000	1,2592005E-003	41	1,3298095E+000	-9,6647898E-007	-8,1811297E-001
2	0	0	1	0	0	7,888977800707653E+002	4,5038211E-001	4,5176801E-001	-1,838204523879342E-003	5,000000000000000E+000	1,2535134E-003	41	1,3364813E+000	-8,3044199E-007	-8,8471329E-001
2	0	0	1	0	0	7,918962799950168E+002	3,9041254E-001	3,9175865E-001	-2,013702427006272E-003	5,000000000000000E+000	1,2476802E-003	41	1,3493363E+000	-7,8888536E-007	-9,5757759E-001
2	0	0	0	0	0	7,948947799192683E+002	3,3044246E-001	3,3179912E-001	-3,036857381842929E-003	5,000000000000000E+000	1,2404216E-003	41	1,3819681E+000	-1,0076266E-006	-1,0501690E+000
2	0	0	0	0	0	7,978932798435198E+002	2,7047223E-001	2,7183273E-001	-5,010607124399227E-003	5,000000000000000E+000	1,2276410E-003	41	1,4457326E+000	-1,3620470E-006	-1,1738999E+000
2	0	0	1	0	0	8,008917797677714E+002	2,1050282E-001	2,1189186E-001	-4,808228612865173E-003	5,000000000000000E+000	1,2130521E-003	41	1,4681426E+000	-1,0188245E-006	-1,2562507E+000
2	0	0	1	0	0	8,038902796920229E+002	1,5053195E-001	1,5192091E-001	-7,007690879959505E-003	5,000000000000000E+000	1,1962028E-003	41	1,5323671E+000	-1,0646148E-006	-1,3804462E+000
2	0	0	0	0	0	8,068887796162744E+002	9,0563163E-002	9,1968589E-002	-8,761890483049983E-003	5,000000000000000E+000	1,1704763E-003	41	1,5971322E+000	-8,0581867E-007	-1,5051637E+000
2	0	0	0	0	0	8,098872795405259E+002	3,0591877E-002	3,2022938E-002	-2,600741086542069E-002	5,000000000000000E+000	1,1349265E-003	41	1,8912873E+000	-8,3283373E-007	-1,8592644E+000
2	0	0	0	0	0	8,111619795083243E+002	4,9062776E-003	6,3791764E-003	-1,151606440544128E-001	5,000000000000000E+000	1,0575058E-003	41	3,2084901E+000	-7,3463008E-007	-3,2021110E+000