File: Benchmarking/data/2022-03-10 08_39_41 GC benchmarking2_09_01_CVA_DUSB0_C01.mpt
EC-Lab ASCII FILE
Nb header lines : 91

Cyclic Voltammetry Advanced

Run on channel : 1 (SN 5836)
User :
Electrode connection : standard
Ewe ctrl range : min = -5,00 V, max = 5,00 V
Ewe,I filtering : 50 kHz
Safety Limits :
	Do not start on E overload
Channel : Floating
Acquisition started on : 03/10/2022 09:00:30
Saved on :
	File : 2022-03-10 08_39_41 GC benchmarking2_09_01_CVA_DUSB0_C01.mpr
	Directory : C:\Users\Spectro Inlets Lab_1\Desktop\Zilien Data Dir\R&D\GC New Benchmarking Procedure\2022-03-10 08_39_41 GC benchmarking2\
	Host : 192.168.1.105
Device : SP-200 (SN 0763)
Address : USB
EC-Lab for windows v11.27 (software)
Internet server v11.25 (firmware)
Command interpretor v11.27 (firmware)
Electrode material :
Initial state :
Electrolyte :
Comments :
Cable : standard
Electrode surface area : 0,001 cm²
Characteristic mass : 0,001 g
Equivalent Weight : 0,000 g/eq.
Density : 0,000 g/cm3
Record EIS quality indicators
Cycle Definition : Charge/Discharge alternance
Ei (V)              0,000
vs.                 Ref
ti (h:m:s)          0:00:10,0000
dti (s)             1,0000
dE/dt               20,000
dE/dt unit          mV/s
E1 (V)              1,800
vs.                 Ref
t1 (h:m:s)          0:00:0,0000
dt1 (s)             0,1000
Step percent        80
N                   20
E range min (V)     -5,000
E range max (V)     5,000
I Range             100 µA
I Range min         Unset
I Range max         Unset
I Range init        Unset
Bandwidth           1
E2 (V)              -0,850
vs.                 Ref
t2 (h:m:s)          0:00:0,0000
dt2 (s)             0,1000
nc cycles           4
nr                  1
Reverse Scan        0
Ef (V)              0,000
vs.                 Eoc
tf (h:m:s)          0:00:0,0000
dtf (s)             0,1000

Modify on : 03/10/2022 09:02
E1 (V)              1,850

Modify on : 03/10/2022 09:03
E2 (V)              -0,800

Modify on : 03/10/2022 09:04
E2 (V)              -0,750

Modify on : 03/10/2022 09:06
E2 (V)              -0,775

Modify on : 03/10/2022 09:09
nc cycles           5

Modify on : 03/10/2022 09:19
E2 (V)              -0,800
nc cycles           6

Modify on : 03/10/2022 09:19
E2 (V)              -0,850

Modify on : 03/10/2022 09:22
nc cycles           7

mode	ox/red	error	control changes	Ns changes	counter inc.	time/s	control/V	Ewe/V	<I>/mA	cycle number	(Q-Qo)/C	I Range	P/W
2	0	0	1	0	0	0,000000000000000E+000	6,2669656E-005	2,2934264E-004	-6,185158272273839E-004	1,000000000000000E+000	0,0000000E+000	41	-1,4185204E-010
2	1	0	0	0	0	1,411289964347816E+001	8,1998460E-002	8,2299143E-002	1,461610326307450E-004	1,000000000000000E+000	-3,7957159E-006	41	1,2028928E-008
2	1	0	0	0	0	2,030979948693130E+001	2,0593552E-001	2,0627493E-001	3,008409725509368E-004	1,000000000000000E+000	-1,7128407E-006	41	6,2055946E-008
2	0	0	1	0	0	2,650669933038444E+001	3,2987261E-001	3,3019289E-001	4,505235518040022E-004	1,000000000000000E+000	1,1659957E-006	41	1,4875968E-007
2	0	0	0	0	0	3,270369917383505E+001	4,5381382E-001	4,5417431E-001	6,170518927814004E-004	1,000000000000000E+000	4,9946357E-006	41	2,8024911E-007
2	1	0	0	0	0	3,890059901728819E+001	5,7775182E-001	5,7810217E-001	7,497259810352232E-004	1,000000000000000E+000	9,7577931E-006	41	4,3341822E-007
2	1	0	1	0	0	4,509759886073880E+001	7,0169055E-001	7,0206654E-001	1,070974507577830E-003	1,000000000000000E+000	1,5840456E-005	41	7,5189536E-007
2	1	0	0	0	0	5,129449870419194E+001	8,2562906E-001	8,2598704E-001	1,690772064284848E-003	1,000000000000000E+000	2,4740479E-005	41	1,3965558E-006
2	1	0	0	0	0	5,749139854764508E+001	9,4956791E-001	9,4991702E-001	2,645134337734278E-003	1,000000000000000E+000	3,8637761E-005	41	2,5126581E-006
2	1	0	1	0	0	6,368839839109569E+001	1,0735066E+000	1,0738574E+000	3,680068639943405E-003	1,000000000000000E+000	5,8834503E-005	41	3,9518691E-006
2	1	0	0	0	0	6,988529823454883E+001	1,1974442E+000	1,1977711E+000	4,536111966597395E-003	1,000000000000000E+000	8,4858060E-005	41	5,4332236E-006
2	1	0	1	0	0	7,608229807799944E+001	1,3213856E+000	1,3217485E+000	5,519048365255838E-003	1,000000000000000E+000	1,1642616E-004	41	7,2947937E-006
2	1	0	1	0	0	8,227919792145258E+001	1,4453230E+000	1,4457278E+000	7,152431511744967E-003	1,000000000000000E+000	1,5584275E-004	41	1,0340469E-005
2	1	0	0	0	0	8,847619776490319E+001	1,5692616E+000	1,5696746E+000	1,048487525182093E-002	1,000000000000000E+000	2,0975315E-004	41	1,6457843E-005
2	1	0	1	0	0	9,467309760835633E+001	1,6932007E+000	1,6936370E+000	1,745115192851449E-002	1,000000000000000E+000	2,9456016E-004	41	2,9555917E-005
2	1	0	1	0	0	1,005130974608255E+002	1,7899524E+000	1,7903593E+000	2,022436256011327E-002	1,000000000000000E+000	4,2592012E-004	41	3,6208876E-005
2	1	0	1	0	0	1,067099973042787E+002	1,6660141E+000	1,6664418E+000	2,116894506766512E-003	1,000000000000000E+000	4,7029686E-004	41	3,5276814E-006
2	1	0	0	0	0	1,129069971477293E+002	1,5420753E+000	1,5424714E+000	1,793528496444696E-004	1,000000000000000E+000	4,7531753E-004	41	2,7664663E-007
2	1	0	1	0	0	1,191038969911824E+002	1,4181371E+000	1,4185269E+000	-3,031026851174941E-004	1,000000000000000E+000	4,7411167E-004	41	-4,2995930E-007
2	0	0	0	0	0	1,253008968346330E+002	1,2941959E+000	1,2945694E+000	-4,970747913424492E-004	1,000000000000000E+000	4,7102026E-004	41	-6,4349780E-007
2	0	0	0	0	0	1,314977966780862E+002	1,1702589E+000	1,1706049E+000	-6,422764921536640E-004	1,000000000000000E+000	4,6693141E-004	41	-7,5185204E-007
2	0	0	1	0	0	1,376946965215393E+002	1,0463217E+000	1,0466907E+000	-8,066769156587859E-004	1,000000000000000E+000	4,6187727E-004	41	-8,4434123E-007
2	0	0	0	0	0	1,438916963649899E+002	9,2238063E-001	9,2270702E-001	-1,015726277993158E-003	1,000000000000000E+000	4,5566750E-004	41	-9,3721775E-007
2	0	0	0	0	0	1,500885962084431E+002	7,9844266E-001	7,9876000E-001	-1,321950502101217E-003	1,000000000000000E+000	4,4792896E-004	41	-1,0559212E-006
2	0	0	1	0	0	1,562855960518937E+002	6,7450392E-001	6,7485285E-001	-1,766268276070628E-003	1,000000000000000E+000	4,3788226E-004	41	-1,1919711E-006
2	0	0	0	0	0	1,624824958953468E+002	5,5056542E-001	5,5089462E-001	-2,156670935382680E-003	1,000000000000000E+000	4,2497841E-004	41	-1,1880984E-006
2	0	0	0	0	0	1,686793957387999E+002	4,2662641E-001	4,2696926E-001	-2,323857695277272E-003	1,000000000000000E+000	4,1032428E-004	41	-9,9221575E-007
2	0	0	1	0	0	1,748763955822506E+002	3,0268773E-001	3,0302688E-001	-2,480207053587161E-003	1,000000000000000E+000	3,9475082E-004	41	-7,5156942E-007
2	0	0	0	0	0	1,810732954257037E+002	1,7875001E-001	1,7904386E-001	-2,680586145430763E-003	1,000000000000000E+000	3,7807086E-004	41	-4,7994251E-007
2	0	0	1	0	0	1,872702952691543E+002	5,4808736E-002	5,5111989E-002	-2,969175681285741E-003	1,000000000000000E+000	3,5997599E-004	41	-1,6363718E-007
2	0	0	1	0	0	1,934671951126074E+002	-6,9128595E-002	-6,8855524E-002	-3,327771807163480E-003	1,000000000000000E+000	3,3980311E-004	41	2,2913547E-007
2	0	0	0	0	0	1,996641949560581E+002	-1,9306745E-001	-1,9277741E-001	-3,628712611156997E-003	1,000000000000000E+000	3,1763368E-004	41	6,9953381E-007
2	0	0	1	0	0	2,058610947995112E+002	-3,1700674E-001	-3,1672683E-001	-3,913317905281176E-003	1,000000000000000E+000	2,9381225E-004	41	1,2394528E-006
2	0	0	1	0	0	2,120579946429643E+002	-4,4094521E-001	-4,4069448E-001	-4,466311979182078E-003	1,000000000000000E+000	2,6761537E-004	41	1,9682791E-006
2	0	0	0	0	0	2,182549944864149E+002	-5,6488401E-001	-5,6462145E-001	-5,725962351629782E-003	1,000000000000000E+000	2,3587262E-004	41	3,2330011E-006
2	0	0	1	0	0	2,244518943298681E+002	-6,8882221E-001	-6,8855375E-001	-1,126590091167305E-002	1,000000000000000E+000	1,8810281E-004	41	7,7571785E-006
2	0	0	0	0	1	2,301209941866546E+002	-7,9776919E-001	-7,9746121E-001	-5,245363512158141E-002	1,000000000000000E+000	3,6367805E-005	41	4,1829739E-005
2	0	0	1	0	1	2,363178940301077E+002	-6,7383087E-001	-6,7352819E-001	-1,119977389732069E-002	1,000000000000000E+000	-1,2911945E-004	41	7,5433636E-006
2	0	0	1	0	1	2,425147938735608E+002	-5,4989141E-001	-5,4959023E-001	-2,038943843312459E-003	1,000000000000000E+000	-1,6208741E-004	41	1,1205836E-006
2	0	0	0	0	1	2,487117937170115E+002	-4,2595255E-001	-4,2566702E-001	-3,167266054500623E-004	1,000000000000000E+000	-1,6729544E-004	41	1,3482007E-007
2	0	0	1	0	1	2,549086935604646E+002	-3,0201522E-001	-3,0172122E-001	4,669020034453139E-005	1,000000000000000E+000	-1,6724966E-004	41	-1,4087424E-008
2	1	0	0	0	1	2,611056934039152E+002	-1,7807403E-001	-1,7774706E-001	2,568447583219937E-004	1,000000000000000E+000	-1,6564240E-004	41	-4,5653401E-008
2	1	0	0	0	1	2,673025932473684E+002	-5,4135997E-002	-5,3830724E-002	5,122599387494958E-004	1,000000000000000E+000	-1,6266236E-004	41	-2,7575323E-008
2	1	0	0	0	1	2,731197931004135E+002	6,2206555E-002	6,2529042E-002	7,786896069971443E-004	2,000000000000000E+000	-1,5837680E-004	41	4,8690715E-008
2	1	0	1	0	1	2,793166929438667E+002	1,8614572E-001	1,8645698E-001	1,135644492975908E-003	2,000000000000000E+000	-1,5186169E-004	41	2,1174884E-007
2	1	0	1	0	1	2,855135927873198E+002	3,1008407E-001	3,1041473E-001	1,597195578288767E-003	2,000000000000000E+000	-1,4286982E-004	41	4,9579302E-007
2	1	0	0	0	1	2,917105926307704E+002	4,3402278E-001	4,3433410E-001	2,034813707638243E-003	2,000000000000000E+000	-1,3102035E-004	41	8,8378897E-007
2	1	0	1	0	1	2,979074924742235E+002	5,5796111E-001	5,5828339E-001	2,438090797078803E-003	2,000000000000000E+000	-1,1637107E-004	41	1,3611456E-006
2	1	0	1	0	1	3,041043923176767E+002	6,8190032E-001	6,8226415E-001	2,746359557334703E-003	2,000000000000000E+000	-9,9474244E-005	41	1,8737427E-006
2	1	0	0	0	1	3,103013921611273E+002	8,0583900E-001	8,0619246E-001	2,774562923820524E-003	2,000000000000000E+000	-8,1697763E-005	41	2,2368317E-006
2	1	0	1	0	1	3,164982920045804E+002	9,2977625E-001	9,3013370E-001	2,844246909901184E-003	2,000000000000000E+000	-6,3765176E-005	41	2,6455300E-006
2	1	0	0	0	1	3,226952918480310E+002	1,0537175E+000	1,0541096E+000	2,995223676287878E-003	2,000000000000000E+000	-4,5142380E-005	41	3,1572940E-006
2	1	0	0	0	1	3,288921916914842E+002	1,1776552E+000	1,1780026E+000	3,203909054973988E-003	2,000000000000000E+000	-2,5473491E-005	41	3,7742132E-006
2	1	0	1	0	1	3,350891915349348E+002	1,3015940E+000	1,3019724E+000	3,692431299688846E-003	2,000000000000000E+000	-3,7585867E-006	41	4,8074435E-006
2	1	0	0	0	1	3,412860913783879E+002	1,4255332E+000	1,4259124E+000	4,877859114334498E-003	2,000000000000000E+000	2,2866421E-005	41	6,9553998E-006
2	1	0	0	0	1	3,474829912218411E+002	1,5494716E+000	1,5498710E+000	7,667028461072395E-003	2,000000000000000E+000	6,1075552E-005	41	1,1882905E-005
2	1	0	1	0	1	3,536799910652917E+002	1,6734104E+000	1,6738448E+000	1,403190952004755E-002	2,000000000000000E+000	1,2645723E-004	41	2,3487239E-005
2	1	0	0	0	1	3,598768909087448E+002	1,7973481E+000	1,7977591E+000	2,715828569154433E-002	2,000000000000000E+000	2,4966570E-004	41	4,8824055E-005
2	1	0	1	0	1	3,656179907637124E+002	1,7877537E+000	1,7881625E+000	9,744239198768989E-003	2,000000000000000E+000	3,9214923E-004	41	1,7424283E-005
2	1	0	0	0	1	3,718149906071631E+002	1,6638151E+000	1,6642236E+000	1,566370539677689E-003	2,000000000000000E+000	4,1859219E-004	41	2,6067908E-006
2	1	0	1	0	1	3,780118904506162E+002	1,5398772E+000	1,5402441E+000	9,234684387458792E-005	2,000000000000000E+000	4,2215997E-004	41	1,4223669E-007
2	1	0	0	0	1	3,842088902940668E+002	1,4159358E+000	1,4163002E+000	-3,493300223499866E-004	2,000000000000000E+000	4,2058929E-004	41	-4,9475619E-007
2	1	0	0	0	1	3,904057901375199E+002	1,2919987E+000	1,2923645E+000	-5,457401406616432E-004	2,000000000000000E+000	4,1721333E-004	41	-7,0529518E-007
2	0	0	1	0	1	3,966026899809731E+002	1,1680619E+000	1,1683929E+000	-7,122828710791861E-004	2,000000000000000E+000	4,1276740E-004	41	-8,3222625E-007
2	0	0	0	0	1	4,027996898244237E+002	1,0441204E+000	1,0444725E+000	-9,023228929831914E-004	2,000000000000000E+000	4,0722592E-004	41	-9,4245144E-007
2	0	0	0	0	1	4,089965896678768E+002	9,2018253E-001	9,2052066E-001	-1,141545564438542E-003	2,000000000000000E+000	4,0036321E-004	41	-1,0508163E-006
2	0	0	1	0	1	4,151935895113274E+002	7,9624385E-001	7,9657227E-001	-1,505134572035542E-003	2,000000000000000E+000	3,9171113E-004	41	-1,1989484E-006
2	0	0	0	0	1	4,213904893547806E+002	6,7230552E-001	6,7264265E-001	-2,024771686679114E-003	2,000000000000000E+000	3,8026436E-004	41	-1,3619477E-006
2	0	0	0	0	1	4,275873891982337E+002	5,4836631E-001	5,4871982E-001	-2,508244645239306E-003	2,000000000000000E+000	3,6539781E-004	41	-1,3763236E-006
2	0	0	1	0	1	4,337843890416843E+002	4,2442751E-001	4,2480189E-001	-2,701627768572178E-003	2,000000000000000E+000	3,4847890E-004	41	-1,1476566E-006
2	0	0	0	0	1	4,399812888851375E+002	3,0049008E-001	3,0083236E-001	-2,846479614565429E-003	2,000000000000000E+000	3,3054981E-004	41	-8,5631319E-007
2	0	0	1	0	1	4,461782887285881E+002	1,7654878E-001	1,7687447E-001	-2,991424959859525E-003	2,000000000000000E+000	3,1170048E-004	41	-5,2910673E-007
2	0	0	1	0	1	4,523751885720412E+002	5,2611291E-002	5,2935138E-002	-3,185445625540358E-003	2,000000000000000E+000	2,9186928E-004	41	-1,6862201E-007
2	0	0	0	0	1	4,585721884154918E+002	-7,1327507E-002	-7,1029842E-002	-3,469637260199651E-003	2,000000000000000E+000	2,7051530E-004	41	2,4644780E-007
2	0	0	1	0	1	4,647690882589450E+002	-1,9526657E-001	-1,9496389E-001	-3,731904501802785E-003	2,000000000000000E+000	2,4755276E-004	41	7,2758661E-007
2	0	0	1	0	1	4,709659881023981E+002	-3,1920522E-001	-3,1890768E-001	-4,087059398698946E-003	2,000000000000000E+000	2,2291557E-004	41	1,3033946E-006
2	0	0	0	0	1	4,771629879458487E+002	-4,4314408E-001	-4,4287685E-001	-4,787908290158502E-003	2,000000000000000E+000	1,9516289E-004	41	2,1204537E-006
2	0	0	1	0	1	4,833598877893019E+002	-5,6708229E-001	-5,6677830E-001	-6,193230602919014E-003	2,000000000000000E+000	1,6124028E-004	41	3,5101887E-006
2	0	0	0	0	1	4,895568876327525E+002	-6,9102347E-001	-6,9072396E-001	-1,442472615000424E-002	2,000000000000000E+000	1,0565847E-004	41	9,9635035E-006
2	0	0	0	0	0	4,952652874885462E+002	-7,4479365E-001	-7,4447978E-001	-2,924889977155531E-002	2,000000000000000E+000	-5,6463803E-005	41	2,1775215E-005
2	0	0	0	0	0	5,014621873319993E+002	-6,2085640E-001	-6,2054205E-001	-6,807496992175699E-003	2,000000000000000E+000	-1,5533436E-004	41	4,2243382E-006
2	0	0	1	0	0	5,076590871754524E+002	-4,9691942E-001	-4,9658409E-001	-1,043339812701261E-003	2,000000000000000E+000	-1,7425131E-004	41	5,1810594E-007
2	0	0	0	0	0	5,138560870189031E+002	-3,7297809E-001	-3,7264431E-001	-6,204076569578788E-005	2,000000000000000E+000	-1,7631434E-004	41	2,3119139E-008
2	1	0	0	0	0	5,200529868623562E+002	-2,4903986E-001	-2,4872614E-001	2,123304108269902E-004	2,000000000000000E+000	-1,7521295E-004	41	-5,2812123E-008
2	1	0	1	0	0	5,262499867058068E+002	-1,2510099E-001	-1,2479824E-001	4,333775999215035E-004	2,000000000000000E+000	-1,7266517E-004	41	-5,4084762E-008
2	1	0	0	0	0	5,324268865497652E+002	-1,5588140E-003	-1,2324909E-003	7,004957896780058E-004	2,000000000000000E+000	-1,6857075E-004	41	-8,6335467E-010
2	1	0	1	0	0	5,384139863985183E+002	1,1817890E-001	1,1850086E-001	1,035665139913258E-003	3,000000000000000E+000	-1,6278239E-004	41	1,2272722E-007
2	1	0	0	0	0	5,446108862419715E+002	2,4211742E-001	2,4246748E-001	1,475882291192047E-003	3,000000000000000E+000	-1,5449649E-004	41	3,5785345E-007
2	1	0	0	0	0	5,508077860854246E+002	3,6605638E-001	3,6636809E-001	1,920980333708317E-003	3,000000000000000E+000	-1,4342654E-004	41	7,0378587E-007
2	1	0	1	0	0	5,570047859288752E+002	4,8999515E-001	4,9031642E-001	2,393389144747514E-003	3,000000000000000E+000	-1,2933441E-004	41	1,1735179E-006
2	1	0	0	0	0	5,632016857723283E+002	6,1393267E-001	6,1427319E-001	2,802302187943390E-003	3,000000000000000E+000	-1,1259114E-004	41	1,7213791E-006
2	1	0	1	0	0	5,693986856157790E+002	7,3787391E-001	7,3820657E-001	2,904414980565269E-003	3,000000000000000E+000	-9,4044502E-005	41	2,1440583E-006
2	1	0	1	0	0	5,755955854592321E+002	8,6181146E-001	8,6216325E-001	2,884204263353785E-003	3,000000000000000E+000	-7,5441552E-005	41	2,4866549E-006
2	1	0	0	0	0	5,817925853026827E+002	9,8575014E-001	9,8608845E-001	2,960583472789349E-003	3,000000000000000E+000	-5,6734360E-005	41	2,9193973E-006
2	1	0	1	0	0	5,879894851461358E+002	1,1096894E+000	1,1100625E+000	3,110029136843190E-003	3,000000000000000E+000	-3,7364716E-005	41	3,4523266E-006
2	1	0	1	0	0	5,941863849895890E+002	1,2336276E+000	1,2339878E+000	3,401212670532460E-003	3,000000000000000E+000	-1,6759959E-005	41	4,1970547E-006
2	1	0	0	0	0	6,003833848330396E+002	1,3575665E+000	1,3579499E+000	4,126403879797062E-003	3,000000000000000E+000	6,8074996E-006	41	5,6034496E-006
2	1	0	1	0	0	6,065802846764927E+002	1,4815044E+000	1,4819047E+000	5,870059771974134E-003	3,000000000000000E+000	3,7594491E-005	41	8,6988694E-006
2	1	0	0	0	0	6,127772845199434E+002	1,6054455E+000	1,6058731E+000	1,007154583974275E-002	3,000000000000000E+000	8,5773390E-005	41	1,6173624E-005
2	1	0	0	0	0	6,189741843633965E+002	1,7293828E+000	1,7298310E+000	1,908051233387387E-002	3,000000000000000E+000	1,7348069E-004	41	3,3006061E-005
2	1	0	1	0	0	6,250001842111669E+002	1,8500241E+000	1,8505676E+000	3,723287582397461E-002	3,000000000000000E+000	3,3871428E-004	41	6,8901951E-005
2	1	0	1	0	0	6,309122840618147E+002	1,7317798E+000	1,7321973E+000	4,363390270344505E-003	3,000000000000000E+000	4,1882275E-004	41	7,5582529E-006
2	1	0	1	0	0	6,371091839052679E+002	1,6078428E+000	1,6082343E+000	7,089090925078353E-004	3,000000000000000E+000	4,3096335E-004	41	1,1400919E-006
2	0	0	0	0	0	6,433060837487210E+002	1,4839057E+000	1,4842957E+000	-1,430431567014347E-004	3,000000000000000E+000	4,3163283E-004	41	-2,1231834E-007
2	1	0	1	0	0	6,495030835921716E+002	1,3599643E+000	1,3603401E+000	-4,526815778062750E-004	3,000000000000000E+000	4,2910810E-004	41	-6,1580090E-007
2	0	0	1	0	0	6,556999834356247E+002	1,2360265E+000	1,2363946E+000	-6,317396111816765E-004	3,000000000000000E+000	4,2518566E-004	41	-7,8107945E-007
2	0	0	0	0	0	6,618969832790754E+002	1,1120877E+000	1,1124363E+000	-8,112957119612713E-004	3,000000000000000E+000	4,2017896E-004	41	-9,0251478E-007
2	0	0	1	0	0	6,680938831225285E+002	9,8814923E-001	9,8849338E-001	-1,032476772899612E-003	3,000000000000000E+000	4,1396162E-004	41	-1,0205964E-006
2	0	0	1	0	0	6,742907829659816E+002	8,6421013E-001	8,6455756E-001	-1,323652574584879E-003	3,000000000000000E+000	4,0620790E-004	41	-1,1443739E-006
2	0	0	0	0	0	6,804877828094322E+002	7,4027139E-001	7,4059504E-001	-1,778334584997328E-003	3,000000000000000E+000	3,9612301E-004	41	-1,3170257E-006
2	0	0	1	0	0	6,866846826528854E+002	6,1633378E-001	6,1669928E-001	-2,396308630933774E-003	3,000000000000000E+000	3,8255981E-004	41	-1,4778018E-006
2	0	0	0	0	0	6,928816824963360E+002	4,9239245E-001	4,9272639E-001	-2,758116352383828E-003	3,000000000000000E+000	3,6582263E-004	41	-1,3589967E-006
2	0	0	0	0	0	6,990785823397891E+002	3,6845520E-001	3,6876616E-001	-2,873265664083897E-003	3,000000000000000E+000	3,4772462E-004	41	-1,0595631E-006
2	0	0	1	0	0	7,052755821832397E+002	2,4451643E-001	2,4488881E-001	-2,980679986799142E-003	3,000000000000000E+000	3,2884011E-004	41	-7,2993521E-007
2	0	0	0	0	0	7,114724820266929E+002	1,2057708E-001	1,2091390E-001	-3,108407691459633E-003	3,000000000000000E+000	3,0916344E-004	41	-3,7584971E-007
2	0	0	0	0	0	7,176693818701460E+002	-3,3610424E-003	-3,0398075E-003	-3,341819802697824E-003	3,000000000000000E+000	2,8840176E-004	41	1,0158489E-008
2	0	0	1	0	0	7,238663817135966E+002	-1,2729990E-001	-1,2700342E-001	-3,617985384966885E-003	3,000000000000000E+000	2,6605211E-004	41	4,5949650E-007
2	0	0	0	0	0	7,300632815570498E+002	-2,5123838E-001	-2,5098300E-001	-3,907534627684853E-003	3,000000000000000E+000	2,4214922E-004	41	9,8072474E-007
2	0	0	1	0	0	7,362602814005004E+002	-3,7517953E-001	-3,7490934E-001	-4,476598823679304E-003	3,000000000000000E+000	2,1579440E-004	41	1,6783188E-006
2	0	0	1	0	0	7,424571812439535E+002	-4,9911648E-001	-4,9886119E-001	-5,531868183696345E-003	3,000000000000000E+000	1,8453911E-004	41	2,7596343E-006
2	0	0	0	0	0	7,486540810874067E+002	-6,2305379E-001	-6,2280190E-001	-7,588343534196809E-003	3,000000000000000E+000	1,4472983E-004	41	4,7260346E-006
2	0	0	1	0	0	7,548510809308573E+002	-7,4699509E-001	-7,4669433E-001	-2,156301389383414E-002	3,000000000000000E+000	6,8048721E-005	41	1,6100979E-005
2	0	0	1	0	1	7,605594807866510E+002	-6,8882197E-001	-6,8850821E-001	-1,112065015127113E-002	3,000000000000000E+000	-4,6640296E-005	41	7,6566594E-006
2	0	0	1	0	1	7,667563806301041E+002	-5,6488401E-001	-5,6456178E-001	-1,916628406529751E-003	3,000000000000000E+000	-7,9660836E-005	41	1,0820552E-006
2	0	0	0	0	1	7,729533804735547E+002	-4,4094518E-001	-4,4063738E-001	-2,214743873090597E-004	3,000000000000000E+000	-8,4227053E-005	41	9,7589897E-008
2	1	0	1	0	1	7,791502803170079E+002	-3,1700653E-001	-3,1668136E-001	1,219566807475049E-004	3,000000000000000E+000	-8,3779014E-005	41	-3,8621408E-008
2	1	0	1	0	1	7,853471801604610E+002	-1,9306748E-001	-1,9275700E-001	3,410283174353507E-004	3,000000000000000E+000	-8,1729842E-005	41	-6,5735591E-008
2	1	0	0	0	1	7,915441800039116E+002	-6,9128595E-002	-6,8821341E-002	5,881481987020411E-004	3,000000000000000E+000	-7,8227982E-005	41	-4,0477147E-008
2	1	0	1	0	1	7,975111798531725E+002	5,0212484E-002	5,0556540E-002	8,965647808812961E-004	4,000000000000000E+000	-7,3154079E-005	41	4,5327212E-008
2	1	0	0	0	1	8,037081796966231E+002	1,7415123E-001	1,7448144E-001	1,323822501152889E-003	4,000000000000000E+000	-6,5729771E-005	41	2,3098245E-007
2	1	0	1	0	1	8,099050795400763E+002	2,9808894E-001	2,9843023E-001	1,779756471813831E-003	4,000000000000000E+000	-5,5604589E-005	41	5,3113314E-007
2	1	0	0	0	1	8,161020793835269E+002	4,2203021E-001	4,2236012E-001	2,269468901551573E-003	4,000000000000000E+000	-4,2367898E-005	41	9,5853318E-007
2	1	0	0	0	1	8,222989792269800E+002	5,4596752E-001	5,4628950E-001	2,754798395394083E-003	4,000000000000000E+000	-2,6040616E-005	41	1,5049175E-006
2	1	0	1	0	1	8,284958790704331E+002	6,6990435E-001	6,7025375E-001	3,090027615133016E-003	4,000000000000000E+000	-7,2450580E-006	41	2,0711027E-006
2	1	0	0	0	1	8,346928789138838E+002	7,9384530E-001	7,9416299E-001	3,034690383241645E-003	4,000000000000000E+000	1,2464457E-005	41	2,4100389E-006
2	1	0	0	0	1	8,408897787573369E+002	9,1778368E-001	9,1812128E-001	3,024459108497764E-003	4,000000000000000E+000	3,1872529E-005	41	2,7768203E-006
2	1	0	1	0	1	8,470867786007875E+002	1,0417224E+000	1,0420748E+000	3,129408775349840E-003	4,000000000000000E+000	5,1553747E-005	41	3,2610781E-006
2	1	0	0	0	1	8,532836784442407E+002	1,1656607E+000	1,1660044E+000	3,305794102113201E-003	4,000000000000000E+000	7,1992763E-005	41	3,8545704E-006
2	1	0	1	0	1	8,594806782876913E+002	1,2896019E+000	1,2899690E+000	3,748117498415882E-003	4,000000000000000E+000	9,4246985E-005	41	4,8349552E-006
2	1	0	1	0	1	8,656775781311444E+002	1,4135387E+000	1,4138914E+000	4,841656517288483E-003	4,000000000000000E+000	1,2100022E-004	41	6,8455765E-006
2	1	0	0	0	1	8,718744779745975E+002	1,5374758E+000	1,5378659E+000	7,534037381512506E-003	4,000000000000000E+000	1,5877993E-004	41	1,1586339E-005
2	1	0	1	0	1	8,780714778180482E+002	1,6614169E+000	1,6618435E+000	1,380241526616299E-002	4,000000000000000E+000	2,2306701E-004	41	2,2937455E-005
2	1	0	1	0	1	8,842683776615013E+002	1,7853547E+000	1,7857673E+000	2,695732803100298E-002	4,000000000000000E+000	3,4484046E-004	41	4,8139515E-005
2	1	0	1	0	1	8,900094775164689E+002	1,7997491E+000	1,8001485E+000	1,330605105925287E-002	4,000000000000000E+000	5,0906785E-004	41	2,3952867E-005
2	1	0	0	0	1	8,962064773599195E+002	1,6758080E+000	1,6762401E+000	2,109555938613176E-003	4,000000000000000E+000	5,4477423E-004	41	3,5361222E-006
2	1	0	0	0	1	9,024033772033727E+002	1,5518701E+000	1,5522732E+000	2,294320705467216E-004	4,000000000000000E+000	5,5008742E-004	41	3,5614124E-007
2	0	0	1	0	1	9,086003770468233E+002	1,4279314E+000	1,4282930E+000	-3,083151289868724E-004	4,000000000000000E+000	5,4898812E-004	41	-4,4036435E-007
2	0	0	0	0	1	9,147972768902764E+002	1,3039926E+000	1,3043684E+000	-5,448113081633762E-004	4,000000000000000E+000	5,4572290E-004	41	-7,1063465E-007
2	0	0	0	0	1	9,209941767337295E+002	1,1800541E+000	1,1803929E+000	-7,256178879665176E-004	4,000000000000000E+000	5,4124399E-004	41	-8,5651419E-007
2	0	0	1	0	1	9,271911765771802E+002	1,0561153E+000	1,0564828E+000	-9,291962145849542E-004	4,000000000000000E+000	5,3560658E-004	41	-9,8167982E-007
2	0	0	0	0	1	9,333880764206333E+002	9,3217754E-001	9,3253380E-001	-1,179248692591001E-003	4,000000000000000E+000	5,2859110E-004	41	-1,0996893E-006
2	0	0	1	0	1	9,395850762640839E+002	8,0823618E-001	8,0856425E-001	-1,544929147623515E-003	4,000000000000000E+000	5,1969034E-004	41	-1,2491745E-006
2	0	0	1	0	1	9,457819761075370E+002	6,8429911E-001	6,8467164E-001	-2,120909505791494E-003	4,000000000000000E+000	5,0778163E-004	41	-1,4521266E-006
2	0	0	0	0	1	9,519788759509902E+002	5,6036228E-001	5,6068587E-001	-2,729715423719720E-003	4,000000000000000E+000	4,9197039E-004	41	-1,5305129E-006
2	0	0	1	0	1	9,581758757944408E+002	4,3642098E-001	4,3676332E-001	-2,938337059749420E-003	4,000000000000000E+000	4,7383257E-004	41	-1,2833578E-006
2	0	0	1	0	1	9,643727756378939E+002	3,1248283E-001	3,1280571E-001	-3,034101999671270E-003	4,000000000000000E+000	4,5480131E-004	41	-9,4908444E-007
2	0	0	0	0	1	9,705697754813446E+002	1,8854412E-001	1,8884903E-001	-3,130087384034753E-003	4,000000000000000E+000	4,3505212E-004	41	-5,9111397E-007
2	0	0	1	0	1	9,767666753247977E+002	6,4605579E-002	6,4931564E-002	-3,281128239559894E-003	4,000000000000000E+000	4,1452260E-004	41	-2,1304879E-007
2	0	0	1	0	1	9,829635751682508E+002	-5,9333429E-002	-5,9027966E-002	-3,524436447725356E-003	4,000000000000000E+000	3,9263393E-004	41	2,0804032E-007
2	0	0	0	0	1	9,891605750117014E+002	-1,8327229E-001	-1,8296936E-001	-3,790164448825337E-003	4,000000000000000E+000	3,6916745E-004	41	6,9348397E-007
2	0	0	1	0	1	9,953574748551546E+002	-3,0720988E-001	-3,0693713E-001	-4,197779513059982E-003	4,000000000000000E+000	3,4392619E-004	41	1,2884544E-006
2	0	0	0	0	1	1,001554474698605E+003	-4,3115106E-001	-4,3089375E-001	-5,011988787778015E-003	4,000000000000000E+000	3,1506125E-004	41	2,1596347E-006
2	0	0	0	0	1	1,007751374542058E+003	-5,5508888E-001	-5,5481356E-001	-6,293079343761259E-003	4,000000000000000E+000	2,7967346E-004	41	3,4914858E-006
2	0	0	1	0	1	1,013948374385509E+003	-6,7902768E-001	-6,7876911E-001	-9,050095161288296E-003	4,000000000000000E+000	2,3341391E-004	41	6,1429250E-006
2	0	0	1	0	0	1,019656774241303E+003	-7,5678945E-001	-7,5647819E-001	-1,312602112037047E-002	4,000000000000000E+000	1,5701762E-004	41	9,9295485E-006
2	0	0	0	0	0	1,025853674084756E+003	-6,3285047E-001	-6,3258111E-001	-2,332039234639989E-003	4,000000000000000E+000	1,1817968E-004	41	1,4752039E-006
2	0	0	0	0	0	1,032050573928209E+003	-5,0891161E-001	-5,0862384E-001	-3,890925112228301E-004	4,000000000000000E+000	1,1227617E-004	41	1,9790173E-007
2	1	0	1	0	0	1,038247573771660E+003	-3,8497281E-001	-3,8466316E-001	9,830549158332949E-006	4,000000000000000E+000	1,1198611E-004	41	-3,7814503E-009
2	1	0	0	0	0	1,044444473615113E+003	-2,6103497E-001	-2,6072621E-001	2,373742622072936E-004	4,000000000000000E+000	1,1344750E-004	41	-6,1889693E-008
2	1	0	1	0	0	1,050641473458563E+003	-1,3709360E-001	-1,3678946E-001	4,679996992665966E-004	4,000000000000000E+000	1,1630807E-004	41	-6,4017428E-008
2	1	0	1	0	0	1,056838373302016E+003	-1,3156211E-002	-1,2864149E-002	7,673495522477220E-004	4,000000000000000E+000	1,2080427E-004	41	-9,8712993E-009
2	1	0	1	0	0	1,062805473151275E+003	1,0618650E-001	1,0652361E-001	1,146350835469278E-003	5,000000000000000E+000	1,2706951E-004	41	1,2211343E-007
2	1	0	1	0	0	1,069002372994728E+003	2,3012355E-001	2,3047215E-001	1,595879639702660E-003	5,000000000000000E+000	1,3605246E-004	41	3,6780580E-007
2	1	0	0	0	0	1,075199272838181E+003	3,5406041E-001	3,5437837E-001	2,081523867632889E-003	5,000000000000000E+000	1,4808122E-004	41	7,3764704E-007
2	1	0	1	0	0	1,081396272681632E+003	4,7800168E-001	4,7833377E-001	2,649627845056959E-003	5,000000000000000E+000	1,6345554E-004	41	1,2674064E-006
2	1	0	1	0	0	1,087593172525085E+003	6,0193980E-001	6,0227519E-001	3,090432063193767E-003	5,000000000000000E+000	1,8178257E-004	41	1,8612906E-006
2	1	0	0	0	0	1,093790172368535E+003	7,2587860E-001	7,2622776E-001	3,208211728154942E-003	5,000000000000000E+000	2,0213559E-004	41	2,3298924E-006
2	1	0	1	0	0	1,099987072211989E+003	8,4981692E-001	8,5015285E-001	3,121236285154861E-003	5,000000000000000E+000	2,2245116E-004	41	2,6535279E-006
2	1	0	1	0	0	1,106183972055442E+003	9,7375607E-001	9,7409946E-001	3,166444772209738E-003	5,000000000000000E+000	2,4257514E-004	41	3,0844321E-006
2	1	0	0	0	0	1,112380971898892E+003	1,0976949E+000	1,0980319E+000	3,269347491113253E-003	5,000000000000000E+000	2,6315069E-004	41	3,5898477E-006
2	1	0	1	0	0	1,118577871742345E+003	1,2216324E+000	1,2219831E+000	3,551092148060854E-003	5,000000000000000E+000	2,8481201E-004	41	4,3393743E-006
2	1	0	0	0	0	1,124774871585796E+003	1,3455735E+000	1,3459661E+000	4,246982660538308E-003	5,000000000000000E+000	3,0927974E-004	41	5,7162947E-006
2	1	0	0	0	0	1,130971771429249E+003	1,4695109E+000	1,4699183E+000	5,933347790121113E-003	5,000000000000000E+000	3,4070393E-004	41	8,7215358E-006
2	1	0	1	0	0	1,137168771272700E+003	1,5934495E+000	1,5938482E+000	1,008075278093061E-002	5,000000000000000E+000	3,8917470E-004	41	1,6067190E-005
2	1	0	0	0	0	1,143365671116153E+003	1,7173887E+000	1,7178105E+000	1,919507419706577E-002	5,000000000000000E+000	4,7724167E-004	41	3,2973501E-005
2	1	0	0	0	0	1,149562570959606E+003	1,8413270E+000	1,8417544E+000	3,984185670535197E-002	5,000000000000000E+000	6,5062073E-004	41	7,3378913E-005
2	1	0	0	0	0	1,155303770814571E+003	1,7437754E+000	1,7441761E+000	5,753880301199381E-003	5,000000000000000E+000	7,5336127E-004	41	1,0035781E-005
2	1	0	1	0	0	1,161500670658024E+003	1,6198364E+000	1,6202583E+000	9,902879769571661E-004	5,000000000000000E+000	7,6957955E-004	41	1,6045224E-006
2	1	0	1	0	0	1,167697570501477E+003	1,4958979E+000	1,4963058E+000	-6,942581004191540E-005	5,000000000000000E+000	7,7118370E-004	41	-1,0388224E-007
2	0	0	0	0	0	1,173894570344928E+003	1,3719592E+000	1,3723630E+000	-4,308553300754504E-004	5,000000000000000E+000	7,6890452E-004	41	-5,9128990E-007
2	0	0	1	0	0	1,180091470188381E+003	1,2480211E+000	1,2484285E+000	-6,321120985412262E-004	5,000000000000000E+000	7,6500338E-004	41	-7,8914672E-007
2	0	0	0	0	0	1,186288470031832E+003	1,1240798E+000	1,1244347E+000	-8,262392535795856E-004	5,000000000000000E+000	7,5991871E-004	41	-9,2905208E-007
2	0	0	0	0	0	1,192485369875285E+003	1,0001429E+000	1,0004833E+000	-1,055785540185237E-003	5,000000000000000E+000	7,5355638E-004	41	-1,0562958E-006
2	0	0	1	0	0	1,198682269718738E+003	8,7620598E-001	8,7654179E-001	-1,359581223970174E-003	5,000000000000000E+000	7,4558606E-004	41	-1,1917298E-006
2	0	0	0	0	0	1,204879269562189E+003	7,5226462E-001	7,5263041E-001	-1,829001861713662E-003	5,000000000000000E+000	7,3520892E-004	41	-1,3765624E-006
2	0	0	0	0	0	1,211076169405642E+003	6,2832677E-001	6,2868744E-001	-2,539538278980659E-003	5,000000000000000E+000	7,2112196E-004	41	-1,5965758E-006
2	0	0	1	0	0	1,217273169249092E+003	5,0438803E-001	5,0471723E-001	-2,957008229682201E-003	5,000000000000000E+000	7,0339150E-004	41	-1,4924530E-006
2	0	0	0	0	0	1,223470069092546E+003	3,8044932E-001	3,8076618E-001	-3,083730180839371E-003	5,000000000000000E+000	6,8418833E-004	41	-1,1741802E-006
2	0	0	0	0	0	1,229666968935999E+003	2,5651053E-001	2,5684953E-001	-3,168922888343615E-003	5,000000000000000E+000	6,6430721E-004	41	-8,1393637E-007
2	0	0	1	0	0	1,235863968779449E+003	1,3257176E-001	1,3289517E-001	-3,271825730397082E-003	5,000000000000000E+000	6,4374902E-004	41	-4,3480983E-007
2	0	0	0	0	0	1,242060868622902E+003	8,6340858E-003	8,9846086E-003	-3,460067967615551E-003	5,000000000000000E+000	6,2223896E-004	41	-3,1087357E-008
2	0	0	1	0	0	1,248257868466353E+003	-1,1530730E-001	-1,1497767E-001	-3,707702629227025E-003	5,000000000000000E+000	5,9919449E-004	41	4,2630302E-007
2	0	0	1	0	0	1,254454768309806E+003	-2,3924468E-001	-2,3894794E-001	-3,993686417200937E-003	5,000000000000000E+000	5,7460222E-004	41	9,5428311E-007
2	0	0	0	0	0	1,260651768153257E+003	-3,6318353E-001	-3,6289349E-001	-4,594708434428621E-003	5,000000000000000E+000	5,4750522E-004	41	1,6673898E-006
2	0	0	1	0	0	1,266848667996710E+003	-4,8712286E-001	-4,8684424E-001	-5,691705967158428E-003	5,000000000000000E+000	5,1524263E-004	41	2,7709743E-006
2	0	0	1	0	0	1,273045567840163E+003	-6,1106122E-001	-6,1078954E-001	-7,318956996242729E-003	5,000000000000000E+000	4,7471421E-004	41	4,4703424E-006
2	0	0	0	0	0	1,279242567683614E+003	-7,3500013E-001	-7,3473340E-001	-1,203298619376458E-002	5,000000000000000E+000	4,1814579E-004	41	8,8410370E-006
2	0	0	1	0	1	1,284997767538225E+003	-8,4984314E-001	-8,4957474E-001	-3,398580562012898E-002	5,000000000000000E+000	2,9619021E-004	41	2,8873483E-005
2	0	0	0	0	1	1,291099767384076E+003	-7,2780365E-001	-7,2751236E-001	-9,402483684856328E-003	5,000000000000000E+000	1,8418781E-004	41	6,8404229E-006
2	0	0	1	0	1	1,297296767227526E+003	-6,0386473E-001	-6,0356009E-001	-1,425516605401356E-003	5,000000000000000E+000	1,5780760E-004	41	8,6038494E-007
2	1	0	0	0	1	1,303493667070979E+003	-4,7992697E-001	-4,7961983E-001	-1,542671845866548E-004	5,000000000000000E+000	1,5477421E-004	41	7,3989604E-008
2	1	0	1	0	1	1,309690666914430E+003	-3,5598582E-001	-3,5568747E-001	1,688119856648675E-004	5,000000000000000E+000	1,5561815E-004	41	-6,0044307E-008
2	1	0	1	0	1	1,315887566757883E+003	-2,3204821E-001	-2,3174371E-001	3,841172858918256E-004	5,000000000000000E+000	1,5800339E-004	41	-8,9016766E-008
2	1	0	0	0	1	1,322084566601334E+003	-1,0810935E-001	-1,0778674E-001	6,250076597716647E-004	5,000000000000000E+000	1,6181635E-004	41	-6,7367537E-008
2	1	0	1	0	1	1,328001566451858E+003	1,0232244E-002	1,0547915E-002	9,453136397126558E-004	6,000000000000000E+000	1,6713123E-004	41	9,9710880E-009
2	1	0	0	0	1	1,334198566295308E+003	1,3417099E-001	1,3450146E-001	1,408246530340253E-003	6,000000000000000E+000	1,7499158E-004	41	1,8941121E-007
2	1	0	1	0	1	1,340395466138762E+003	2,5810909E-001	2,5843379E-001	1,945586878186473E-003	6,000000000000000E+000	1,8586675E-004	41	5,0280539E-007
2	1	0	0	0	1	1,346592465982212E+003	3,8205037E-001	3,8235244E-001	2,531074632510524E-003	6,000000000000000E+000	2,0035877E-004	41	9,6776262E-007
2	1	0	0	0	1	1,352789365825665E+003	5,0598729E-001	5,0635159E-001	3,124962020656485E-003	6,000000000000000E+000	2,1860603E-004	41	1,5823294E-006
2	1	0	1	0	1	1,358986265669118E+003	6,2992454E-001	6,3030922E-001	3,573821146124997E-003	6,000000000000000E+000	2,3987412E-004	41	2,2526124E-006
2	1	0	0	0	1	1,365183265512569E+003	7,5386572E-001	7,5423270E-001	3,616720957750702E-003	6,000000000000000E+000	2,6287732E-004	41	2,7278493E-006
2	1	0	0	0	1	1,371380165356022E+003	8,7780350E-001	8,7816209E-001	3,542682280200542E-003	6,000000000000000E+000	2,8569804E-004	41	3,1110492E-006
2	1	0	1	0	1	1,377577165199473E+003	1,0017422E+000	1,0020989E+000	3,601787065060341E-003	6,000000000000000E+000	3,0855014E-004	41	3,6093470E-006
2	1	0	0	0	1	1,383774065042926E+003	1,1256809E+000	1,1260388E+000	3,722081326069840E-003	6,000000000000000E+000	3,3191039E-004	41	4,1912081E-006
2	1	0	0	0	1	1,389970964886379E+003	1,2496197E+000	1,2499913E+000	4,065532672636138E-003	6,000000000000000E+000	3,5658167E-004	41	5,0818803E-006
2	1	0	1	0	1	1,396167964729830E+003	1,3735585E+000	1,3739494E+000	4,962710728521627E-003	6,000000000000000E+000	3,8481635E-004	41	6,8185136E-006
2	1	0	0	0	1	1,402364864573283E+003	1,4974961E+000	1,4979309E+000	7,153141111698860E-003	6,000000000000000E+000	4,2205211E-004	41	1,0714911E-005
2	1	0	1	0	1	1,408561864416733E+003	1,6214375E+000	1,6218455E+000	1,242052498468546E-002	6,000000000000000E+000	4,8118754E-004	41	2,0144173E-005
2	1	0	1	0	1	1,414758764260187E+003	1,7453747E+000	1,7457910E+000	2,355263438770189E-002	6,000000000000000E+000	5,8935658E-004	41	4,1117975E-005
2	1	0	1	0	1	1,420499864115154E+003	1,8397288E+000	1,8401709E+000	3,236381686366881E-002	6,000000000000000E+000	7,7760371E-004	41	5,9554954E-005
2	1	0	0	0	1	1,426696863958605E+003	1,7157880E+000	1,7162302E+000	3,999228929039284E-003	6,000000000000000E+000	8,5351628E-004	41	6,8635973E-006
2	1	0	0	0	1	1,432893763802058E+003	1,5918505E+000	1,5922732E+000	6,582686002307193E-004	6,000000000000000E+000	8,6466706E-004	41	1,0481434E-006
2	1	0	1	0	1	1,439090663645511E+003	1,4679139E+000	1,4683318E+000	-1,740281483520699E-004	6,000000000000000E+000	8,6508488E-004	41	-2,5553106E-007
2	1	0	0	0	1	1,445287663488962E+003	1,3439726E+000	1,3443720E+000	-4,875949593995789E-004	6,000000000000000E+000	8,6233323E-004	41	-6,5550904E-007
2	0	0	0	0	1	1,451484563332415E+003	1,2200344E+000	1,2203876E+000	-6,909056582188851E-004	6,000000000000000E+000	8,5808884E-004	41	-8,4317270E-007
2	0	0	1	0	1	1,457681563175865E+003	1,0960957E+000	1,0964705E+000	-8,942568927138069E-004	6,000000000000000E+000	8,5262151E-004	41	-9,8052624E-007
2	0	0	0	0	1	1,463878463019319E+003	9,7215700E-001	9,7249770E-001	-1,150561628686306E-003	6,000000000000000E+000	8,4576546E-004	41	-1,1189186E-006
2	0	0	0	0	1	1,470075362862772E+003	8,4821808E-001	8,4859169E-001	-1,483696956360475E-003	6,000000000000000E+000	8,3712226E-004	41	-1,2590529E-006
2	0	0	1	0	1	1,476272362706222E+003	7,2427934E-001	7,2464657E-001	-2,010839725822638E-003	6,000000000000000E+000	8,2572590E-004	41	-1,4571481E-006
2	0	0	0	0	1	1,482469262549675E+003	6,0034192E-001	6,0066944E-001	-2,778886189580616E-003	6,000000000000000E+000	8,1027253E-004	41	-1,6691920E-006
2	0	0	1	0	1	1,488666262393126E+003	4,7640058E-001	4,7673893E-001	-3,109206851510296E-003	6,000000000000000E+000	7,9153449E-004	41	-1,4822799E-006
2	0	0	1	0	1	1,494863162236579E+003	3,5246310E-001	3,5277498E-001	-3,212694449933204E-003	6,000000000000000E+000	7,7155943E-004	41	-1,1333582E-006
2	0	0	0	0	1	1,501060162080030E+003	2,2852436E-001	2,2883926E-001	-3,321999312351845E-003	6,000000000000000E+000	7,5087202E-004	41	-7,6020387E-007
2	0	0	1	0	1	1,507257061923483E+003	1,0458540E-001	1,0490755E-001	-3,430647791938874E-003	6,000000000000000E+000	7,2944968E-004	41	-3,5990087E-007
2	0	0	1	0	1	1,513453961766936E+003	-1,9353151E-002	-1,9050673E-002	-3,637468296502480E-003	6,000000000000000E+000	7,0690690E-004	41	6,9296220E-008
2	0	0	0	0	1	1,519650961610387E+003	-1,4329201E-001	-1,4298974E-001	-3,858436727696563E-003	6,000000000000000E+000	6,8278739E-004	41	5,5171688E-007
2	0	0	1	0	1	1,525847861453840E+003	-2,6723003E-001	-2,6693264E-001	-4,179547505201942E-003	6,000000000000000E+000	6,5711344E-004	41	1,1156576E-006
2	0	0	0	0	1	1,532044861297290E+003	-3,9117160E-001	-3,9087352E-001	-4,891823633443648E-003	6,000000000000000E+000	6,2852795E-004	41	1,9120844E-006
2	0	0	0	0	1	1,538241761140744E+003	-5,1510859E-001	-5,1483196E-001	-6,107247624497297E-003	6,000000000000000E+000	5,9403043E-004	41	3,1442062E-006
2	0	0	1	0	1	1,544438660984197E+003	-6,3904554E-001	-6,3878280E-001	-7,899278504110985E-003	6,000000000000000E+000	5,5071147E-004	41	5,0459234E-006
2	0	0	0	0	1	1,550635660827647E+003	-7,6298696E-001	-7,6272076E-001	-1,466527771275143E-002	6,000000000000000E+000	4,8636715E-004	41	1,1185512E-005
2	0	0	1	0	0	1,556295960684656E+003	-8,2375628E-001	-8,2345134E-001	-2,160086982327991E-002	6,000000000000000E+000	3,5543367E-004	41	1,7787264E-005
2	0	0	0	0	0	1,562492960528107E+003	-6,9981748E-001	-6,9952333E-001	-5,564831859549479E-003	6,000000000000000E+000	2,7699515E-004	41	3,8927296E-006
2	1	0	1	0	0	1,568689860371560E+003	-5,7587838E-001	-5,7554865E-001	-7,650600302275927E-004	6,000000000000000E+000	2,6256326E-004	41	4,4032927E-007
2	1	0	1	0	0	1,574886760215013E+003	-4,5193976E-001	-4,5167363E-001	-5,700001135129867E-005	6,000000000000000E+000	2,6128185E-004	41	2,5745402E-008
2	1	0	0	0	0	1,581083760058464E+003	-3,2800087E-001	-3,2769504E-001	2,109973360514038E-004	6,000000000000000E+000	2,6256716E-004	41	-6,9142779E-008
2	1	0	1	0	0	1,587280659901917E+003	-2,0406289E-001	-2,0374471E-001	4,370607497186520E-004	6,000000000000000E+000	2,6532597E-004	41	-8,9048818E-008
2	1	0	0	0	0	1,593477659745367E+003	-8,0121487E-002	-7,9828516E-002	7,101209838631072E-004	6,000000000000000E+000	2,6959501E-004	41	-5,6687902E-008
2	1	0	1	0	0	1,599394659595891E+003	3,8216729E-002	3,8571808E-002	1,079325775046894E-003	7,000000000000000E+000	2,7549418E-004	41	4,1631548E-008
2	1	0	0	0	0	1,605591659439342E+003	1,6215800E-001	1,6247863E-001	1,564454246894515E-003	7,000000000000000E+000	2,8417021E-004	41	2,5419038E-007
2	1	0	0	0	0	1,611788559282795E+003	2,8609592E-001	2,8640008E-001	2,111244454740670E-003	7,000000000000000E+000	2,9610880E-004	41	6,0466056E-007
2	1	0	1	0	0	1,617985559126246E+003	4,1003466E-001	4,1037098E-001	2,738480900232716E-003	7,000000000000000E+000	3,1186713E-004	41	1,1237930E-006
2	1	0	0	0	0	1,624182458969699E+003	5,3397322E-001	5,3430885E-001	3,328026384685059E-003	7,000000000000000E+000	3,3138270E-004	41	1,7781939E-006
2	1	0	0	0	0	1,630379358813152E+003	6,5791219E-001	6,5830678E-001	3,737799848303238E-003	7,000000000000000E+000	3,5378934E-004	41	2,4606190E-006
2	1	0	1	0	0	1,636576358656603E+003	7,8185081E-001	7,8220075E-001	3,674263941208844E-003	7,000000000000000E+000	3,7737642E-004	41	2,8740121E-006
2	1	0	0	0	0	1,642773258500056E+003	9,0578860E-001	9,0612257E-001	3,632455438917312E-003	7,000000000000000E+000	4,0063067E-004	41	3,2914497E-006
2	1	0	1	0	0	1,648970258343506E+003	1,0297300E+000	1,0300678E+000	3,703466475513229E-003	7,000000000000000E+000	4,2408041E-004	41	3,8148214E-006
2	1	0	1	0	0	1,655167158186960E+003	1,1536671E+000	1,1539907E+000	3,863463426616953E-003	7,000000000000000E+000	4,4818368E-004	41	4,4584012E-006
2	1	0	0	0	0	1,661364158030410E+003	1,2776059E+000	1,2779512E+000	4,303966101137487E-003	7,000000000000000E+000	4,7401892E-004	41	5,5002588E-006
2	1	0	1	0	0	1,667561057873863E+003	1,4015450E+000	1,4019026E+000	5,439233232810953E-003	7,000000000000000E+000	5,0441065E-004	41	7,6252750E-006
2	1	0	1	0	0	1,673757957717316E+003	1,5254836E+000	1,5258644E+000	8,207388128013110E-003	7,000000000000000E+000	5,4615369E-004	41	1,2523361E-005
2	1	0	0	0	0	1,679954957560767E+003	1,6494222E+000	1,6498284E+000	1,469678277754338E-002	7,000000000000000E+000	6,1524607E-004	41	2,4247171E-005
2	1	0	1	0	0	1,686151857404220E+003	1,7733605E+000	1,7737838E+000	2,823951567262217E-002	7,000000000000000E+000	7,4385881E-004	41	5,0090795E-005
2	1	0	0	0	0	1,691892957259188E+003	1,8117419E+000	1,8121780E+000	1,841667285158408E-002	7,000000000000000E+000	9,3527988E-004	41	3,3374290E-005
2	1	0	1	0	0	1,698089957102638E+003	1,6878031E+000	1,6882292E+000	2,794250956468562E-003	7,000000000000000E+000	9,8348851E-004	41	4,7173362E-006
2	1	0	0	0	0	1,704286856946092E+003	1,5638651E+000	1,5642703E+000	3,975119417819438E-004	7,000000000000000E+000	9,9097181E-004	41	6,2181613E-007
2	1	0	0	0	0	1,710483756789545E+003	1,4399258E+000	1,4403257E+000	-2,600609098765078E-004	7,000000000000000E+000	9,9041872E-004	41	-3,7457241E-007
2	0	0	1	0	0	1,716680756632995E+003	1,3159869E+000	1,3163784E+000	-5,433887178670901E-004	7,000000000000000E+000	9,8723825E-004	41	-7,1530513E-007
2	0	0	0	0	0	1,722877656476448E+003	1,1920496E+000	1,1923842E+000	-7,457542857028615E-004	7,000000000000000E+000	9,8264753E-004	41	-8,8922565E-007
2	0	0	1	0	0	1,729074656319899E+003	1,0681083E+000	1,0684888E+000	-9,684796256294020E-004	7,000000000000000E+000	9,7677519E-004	41	-1,0348097E-006
2	0	0	1	0	0	1,735271556163352E+003	9,4417071E-001	9,4451219E-001	-1,234581715291417E-003	7,000000000000000E+000	9,6940441E-004	41	-1,1660775E-006
2	0	0	0	0	0	1,741468556006803E+003	8,2023197E-001	8,2059634E-001	-1,617318970761257E-003	7,000000000000000E+000	9,6003659E-004	41	-1,3271660E-006
2	0	0	1	0	0	1,747665455850256E+003	6,9629323E-001	6,9666845E-001	-2,241497697985012E-003	7,000000000000000E+000	9,4754610E-004	41	-1,5615807E-006
2	0	0	1	0	0	1,753862355693709E+003	5,7235444E-001	5,7263541E-001	-2,972454634533411E-003	7,000000000000000E+000	9,3074015E-004	41	-1,7021327E-006
2	0	0	0	0	0	1,760059355537160E+003	4,4841570E-001	4,4874662E-001	-3,234992914669194E-003	7,000000000000000E+000	9,1109757E-004	41	-1,4516921E-006
2	0	0	1	0	0	1,766256255380613E+003	3,2447779E-001	3,2480982E-001	-3,335107927231726E-003	7,000000000000000E+000	8,9043396E-004	41	-1,0832758E-006
2	0	0	0	0	0	1,772453255224063E+003	2,0053652E-001	2,0085445E-001	-3,438123963589271E-003	7,000000000000000E+000	8,6904358E-004	41	-6,9056250E-007
2	0	0	0	0	0	1,778650155067517E+003	7,6599441E-002	7,6925576E-002	-3,565938469061315E-003	7,000000000000000E+000	8,4689335E-004	41	-2,7431187E-007
2	0	0	1	0	0	1,784847054910970E+003	-4,7337450E-002	-4,7032047E-002	-3,790188450896854E-003	7,000000000000000E+000	8,2346599E-004	41	1,7826032E-007
2	0	0	0	0	0	1,791044054754420E+003	-1,7127885E-001	-1,7096196E-001	-4,012749558696989E-003	7,000000000000000E+000	7,9843967E-004	41	6,8602753E-007
2	0	0	0	0	0	1,797240954597874E+003	-2,9521707E-001	-2,9490998E-001	-4,383828066796935E-003	7,000000000000000E+000	7,7173091E-004	41	1,2928347E-006
2	0	0	1	0	0	1,803437954441324E+003	-4,1915596E-001	-4,1887790E-001	-5,224348766843592E-003	7,000000000000000E+000	7,4148952E-004	41	2,1883643E-006
2	0	0	0	0	0	1,809634854284777E+003	-5,4309434E-001	-5,4279524E-001	-6,614697807556608E-003	7,000000000000000E+000	7,0445955E-004	41	3,5904266E-006
2	0	0	0	0	0	1,815831754128230E+003	-6,6703361E-001	-6,6677523E-001	-8,729288180240657E-003	7,000000000000000E+000	6,5734237E-004	41	5,8204732E-006
2	0	0	1	0	0	1,822028753971681E+003	-7,9097247E-001	-7,9068458E-001	-1,861713325713038E-002	7,000000000000000E+000	5,8087875E-004	41	1,4720280E-005
2	0	0	1	0	1	1,827689053828690E+003	-7,9577094E-001	-7,9543543E-001	-1,607055274881092E-002	7,000000000000000E+000	4,5151272E-004	41	1,2783087E-005
2	0	0	0	0	1	1,833886053672140E+003	-6,7182982E-001	-6,7154294E-001	-3,279161715859270E-003	7,000000000000000E+000	3,9803126E-004	41	2,2020979E-006
2	0	0	0	0	1	1,840082953515594E+003	-5,4789239E-001	-5,4760039E-001	-4,517670690730507E-004	7,000000000000000E+000	3,9009316E-004	41	2,4738782E-007
2	1	0	1	0	1	1,846279853359047E+003	-4,2395544E-001	-4,2367598E-001	2,884714120194253E-005	7,000000000000000E+000	3,8985780E-004	41	-1,2221841E-008
2	1	0	0	0	1	1,852476853202497E+003	-3,0001408E-001	-2,9972303E-001	2,743908865421893E-004	7,000000000000000E+000	3,9161643E-004	41	-8,2241264E-008
2	1	0	0	0	1	1,858673753045950E+003	-1,7607585E-001	-1,7576802E-001	5,057838890740885E-004	7,000000000000000E+000	3,9480545E-004	41	-8,8900634E-008
2	1	0	1	0	1	1,864870752889401E+003	-5,2136980E-002	-5,1850356E-002	8,131898673233301E-004	7,000000000000000E+000	3,9959053E-004	41	-4,2164185E-008
2	1	0	0	0	1	1,870787752739925E+003	6,6204578E-002	6,6557936E-002	1,216459242039884E-003	8,000000000000000E+000	4,0613743E-004	41	8,0965016E-008
2	1	0	1	0	1	1,876984752583376E+003	1,9014332E-001	1,9046624E-001	1,729182295025713E-003	8,000000000000000E+000	4,1572479E-004	41	3,2935085E-007
2	1	0	0	0	1	1,883181652426829E+003	3,1408083E-001	3,1437781E-001	2,306837987235966E-003	8,000000000000000E+000	4,2882303E-004	41	7,2521868E-007
2	1	0	1	0	1	1,889378652270279E+003	4,3802211E-001	4,3838701E-001	2,990407307692150E-003	8,000000000000000E+000	4,4594583E-004	41	1,3109557E-006
2	1	0	1	0	1	1,895575552113733E+003	5,6195956E-001	5,6232750E-001	3,536613481500958E-003	8,000000000000000E+000	4,6674404E-004	41	1,9887350E-006
2	1	0	0	0	1	1,901772551957183E+003	6,8589830E-001	6,8626308E-001	3,852995683062771E-003	8,000000000000000E+000	4,9024360E-004	41	2,6441687E-006
2	1	0	1	0	1	1,907969451800636E+003	8,0983728E-001	8,1017381E-001	3,737211588351094E-003	8,000000000000000E+000	5,1432056E-004	41	3,0277909E-006
2	1	0	1	0	1	1,914166351644089E+003	9,3377584E-001	9,3411982E-001	3,721125803470698E-003	8,000000000000000E+000	5,3808378E-004	41	3,4759773E-006
2	1	0	0	0	1	1,920363351487540E+003	1,0577146E+000	1,0580690E+000	3,805314934907711E-003	8,000000000000000E+000	5,6217035E-004	41	4,0262858E-006
2	1	0	1	0	1	1,926560251330993E+003	1,1816524E+000	1,1820081E+000	4,015936074082965E-003	8,000000000000000E+000	5,8705988E-004	41	4,7468693E-006
2	1	0	0	0	1	1,932757251174444E+003	1,3055937E+000	1,3059798E+000	4,582677886389448E-003	8,000000000000000E+000	6,1416463E-004	41	5,9848849E-006
2	1	0	0	0	1	1,938954151017897E+003	1,4295307E+000	1,4298791E+000	5,992636621062725E-003	8,000000000000000E+000	6,4701622E-004	41	8,5687461E-006
2	1	0	1	0	1	1,945151050861350E+003	1,5534675E+000	1,5538878E+000	9,462630521816451E-003	8,000000000000000E+000	6,9408788E-004	41	1,4703866E-005
2	1	0	0	0	1	1,951348050704801E+003	1,6774091E+000	1,6778514E+000	1,736049483885593E-002	8,000000000000000E+000	7,7492296E-004	41	2,9128330E-005
2	1	0	0	0	1	1,957544950548254E+003	1,8013469E+000	1,8017541E+000	3,404121865873763E-002	8,000000000000000E+000	9,2791632E-004	41	6,1333907E-005
2	1	0	0	0	1	1,963286050403221E+003	1,7837572E+000	1,7841852E+000	1,161704309068357E-002	8,000000000000000E+000	1,1009258E-003	41	2,0726957E-005
2	1	0	1	0	1	1,969483050246672E+003	1,6598157E+000	1,6602499E+000	1,961728359118745E-003	8,000000000000000E+000	1,1329555E-003	41	3,2569594E-006
2	1	0	1	0	1	1,975679950090125E+003	1,5358779E+000	1,5362841E+000	1,950253501565978E-004	8,000000000000000E+000	1,1377556E-003	41	2,9961436E-007
2	1	0	0	0	1	1,981876949933576E+003	1,4119394E+000	1,4123210E+000	-3,419295630403083E-004	8,000000000000000E+000	1,1363965E-003	41	-4,8291429E-007
2	0	0	1	0	1	1,988073849777029E+003	1,2880007E+000	1,2883929E+000	-6,003723314360956E-004	8,000000000000000E+000	1,1328066E-003	41	-7,7351547E-007
2	0	0	1	0	1	1,994270749620482E+003	1,1640619E+000	1,1644335E+000	-8,027580599460800E-004	8,000000000000000E+000	1,1278576E-003	41	-9,3475836E-007
2	0	0	0	0	1	2,000467749463933E+003	1,0401232E+000	1,0404948E+000	-1,033612673191887E-003	8,000000000000000E+000	1,1215707E-003	41	-1,0754686E-006
2	0	0	1	0	1	2,006664649307386E+003	9,1618562E-001	9,1655225E-001	-1,334112574236152E-003	8,000000000000000E+000	1,1136684E-003	41	-1,2227839E-006
2	0	0	0	0	1	2,012861649150836E+003	7,9224432E-001	7,9258513E-001	-1,760029137088205E-003	8,000000000000000E+000	1,1035234E-003	41	-1,3949730E-006
2	0	0	0	0	1	2,019058548994290E+003	6,6830701E-001	6,6863179E-001	-2,493857687805596E-003	8,000000000000000E+000	1,0898518E-003	41	-1,6674726E-006
2	0	0	1	0	1	2,025255548837740E+003	5,4436827E-001	5,4467487E-001	-3,123056013456499E-003	8,000000000000000E+000	1,0717809E-003	41	-1,7010501E-006
2	0	0	0	0	1	2,031452448681193E+003	4,2042911E-001	4,2074570E-001	-3,346214709652948E-003	8,000000000000000E+000	1,0513444E-003	41	-1,4079054E-006
2	0	0	0	0	1	2,037649348524646E+003	2,9649076E-001	2,9681465E-001	-3,442324342191397E-003	8,000000000000000E+000	1,0300485E-003	41	-1,0217323E-006
2	0	0	1	0	1	2,043846348368097E+003	1,7255202E-001	1,7284147E-001	-3,549173366448957E-003	8,000000000000000E+000	1,0080199E-003	41	-6,1344434E-007
2	0	0	0	0	1	2,050043248211550E+003	4,8613694E-002	4,8946369E-002	-3,698057673192347E-003	8,000000000000000E+000	9,8517409E-004	41	-1,8100650E-007
2	0	0	0	0	1	2,056240148055003E+003	-7,5325541E-002	-7,5026773E-002	-3,926583707804160E-003	8,000000000000000E+000	9,6090842E-004	41	2,9459889E-007
2	0	0	1	0	1	2,062437147898454E+003	-1,9926441E-001	-1,9894345E-001	-4,149874244416298E-003	8,000000000000000E+000	9,3504554E-004	41	8,2559029E-007
2	0	0	0	0	1	2,068634047741907E+003	-3,2320178E-001	-3,2288203E-001	-4,599685880008940E-003	8,000000000000000E+000	9,0724981E-004	41	1,4851558E-006
2	0	0	1	0	1	2,074831047585358E+003	-4,4714317E-001	-4,4686085E-001	-5,595941770404872E-003	8,000000000000000E+000	8,7517768E-004	41	2,5006073E-006
2	0	0	1	0	1	2,081027947428811E+003	-5,7108098E-001	-5,7074904E-001	-7,024299582362281E-003	8,000000000000000E+000	8,3560735E-004	41	4,0091122E-006
2	0	0	0	0	1	2,087224947272261E+003	-6,9501984E-001	-6,9473106E-001	-9,839735097270194E-003	8,000000000000000E+000	7,8441040E-004	41	6,8359695E-006
2	0	0	1	0	1	2,093421847115715E+003	-8,1895864E-001	-8,1863314E-001	-2,368326395428316E-002	8,000000000000000E+000	6,9095881E-004	41	1,9387904E-005
2	0	0	0	0	1	2,094969147076627E+003	-8,5004306E-001	-8,4970462E-001	-3,222008794546127E-002	8,000000000000000E+000	6,4908690E-004	41	2,7377559E-005