File: Quantification/development/OER_repeatability_single_day/OERonPt_RnD1_1.csv
ixdat version = 0.2.3
name = 2022-04-27 11_30_26 OER_repetition_1 AND 2022-04-27 11_30_26 OER_repetition_1_01_01_CVA_DUSB0_C01.mpt AND 2022-04-27 11_30_26 OER_repetition_1_01_02_CP_DUSB0_C01.mpt
technique = EC-MS
tstamp = 1651051826.0
backend_name = BackendBase(none, address=none)
id = 4
timecol 'time/s' for: 'Ewe/V' and 'raw_current' and 'selector'
timecol 'C1M4 time [s]' for: 'M4'
timecol 'C5M44 time [s]' for: 'M44'
timecol 'C4M40 time [s]' for: 'M40'
timecol 'C0M2 time [s]' for: 'M2'
timecol 'C2M28 time [s]' for: 'M28'
timecol 'C3M32 time [s]' for: 'M32'
timecol 'C6M18 time [s]' for: 'M18'
aliases = {"M2": ["M2 [A]"], "M4": ["M4 [A]"], "M28": ["M28 [A]"], "M32": ["M32 [A]"], "M40": ["M40 [A]"], "M44": ["M44 [A]"], "M18": ["M18 [A]"], "t": ["time/s"], "raw_potential": ["Ewe/V"], "raw_current": ["I/mA", "<I>/mA"], "cycle": ["cycle number"]}
N_header_lines = 18

time/s,	Ewe/V,	raw_current,	selector,	C1M4 time [s],	M4,	C5M44 time [s],	M44,	C4M40 time [s],	M40,	C0M2 time [s],	M2,	C2M28 time [s],	M28,	C3M32 time [s],	M32,	C6M18 time [s],	M18
490.0,	0.911481,	-9.89945e-05,	0,	0.620655,	1.297145e-12,	0.918511,	8.095496e-11,	0.843547,	9.340672e-10,	0.545691,	1.409445e-09,	0.694619,	8.853932e-08,	0.769583,	2.305096e-08,	0.992475,	1.545687e-09
509.168,	1.094559,	0.000924294,	0,	23.6898,	7.461692e-13,	23.9878,	8.10589e-11,	23.9138,	9.378148e-10,	23.6158,	1.403536e-09,	23.7648,	8.85284e-08,	23.8388,	2.324867e-08,	24.0628,	1.533005e-09
521.461,	1.34044,	0.00595624,	0,	46.7595,	8.18589e-13,	47.0574,	8.104042e-11,	46.9834,	9.346959e-10,	46.6855,	1.403408e-09,	46.8345,	8.887757e-08,	46.9084,	2.289594e-08,	47.1324,	1.497795e-09
533.755,	1.58638,	0.0268939,	0,	69.8286,	1.453884e-12,	70.1266,	8.123667e-11,	70.0516,	9.372687e-10,	69.7536,	1.406082e-09,	69.9026,	8.90122e-08,	69.9776,	2.312161e-08,	70.2006,	1.471659e-09
545.325,	1.58308,	0.00384096,	0,	92.8972,	9.476357e-13,	93.1952,	8.123407e-11,	93.1212,	9.404234e-10,	92.8232,	1.406102e-09,	92.9722,	8.89431e-08,	93.0462,	2.349393e-08,	93.2701,	1.461979e-09
557.619,	1.33717,	-0.00018461,	0,	115.967,	1.011231e-12,	116.265,	8.067431e-11,	116.191,	9.331342e-10,	115.893,	1.39958e-09,	116.042,	8.905593e-08,	116.116,	2.283987e-08,	116.34,	1.44559e-09
569.912,	1.09127,	-0.000917852,	0,	139.036,	7.533901e-12,	139.334,	8.210798e-11,	139.259,	9.341954e-10,	138.961,	1.397871e-09,	139.11,	8.870659e-08,	139.185,	2.31775e-08,	139.408,	1.435076e-09
582.206,	0.845377,	-0.00463249,	0,	162.106,	7.597167e-12,	162.404,	7.942576e-11,	162.329,	9.35555e-10,	162.031,	1.39247e-09,	162.18,	8.839743e-08,	162.255,	2.290049e-08,	162.478,	1.409038e-09
594.5,	0.599524,	-0.00711325,	0,	185.174,	7.977511e-12,	185.472,	7.941421e-11,	185.398,	9.288556e-10,	185.1,	1.399743e-09,	185.249,	8.806627e-08,	185.323,	2.296612e-08,	185.547,	1.3952e-09
606.793,	0.353637,	-0.00214415,	0,	208.243,	7.584756e-12,	208.541,	8.05736e-11,	208.466,	9.30255e-10,	208.168,	1.379191e-09,	208.317,	8.802999e-08,	208.392,	2.295081e-08,	208.615,	1.361797e-09
619.087,	0.107698,	-0.0131351,	0,	231.3125,	3.082241e-10,	231.611,	9.089696e-11,	231.536,	9.192465e-10,	231.237,	1.384301e-09,	231.386,	8.665847e-08,	231.461,	2.252704e-08,	231.684,	1.379222e-09
630.743,	0.146491,	0.0079779,	0,	254.38,	5.469912e-10,	254.678,	8.344491e-11,	254.604,	9.021384e-10,	254.306,	1.382353e-09,	254.455,	8.599636e-08,	254.529,	2.228793e-08,	254.753,	1.357813e-09
643.037,	0.392313,	0.000563254,	0,	277.451,	5.616536e-10,	277.749,	8.44027e-11,	277.675,	9.190799e-10,	277.377,	1.381073e-09,	277.526,	8.593803e-08,	277.6,	2.239981e-08,	277.824,	1.362122e-09
655.331,	0.638238,	0.000354221,	0,	300.52,	4.120474e-10,	300.818,	7.857651e-11,	300.743,	9.090396e-10,	300.445,	1.378926e-09,	300.594,	8.610911e-08,	300.669,	2.208818e-08,	300.892,	1.47367e-09
667.624,	0.884084,	0.00229735,	0,	323.589,	3.436671e-08,	323.887,	6.782461e-11,	323.813,	1.116943e-10,	323.515,	1.678017e-09,	323.664,	7.631543e-09,	323.738,	2.549051e-09,	323.962,	3.353079e-09
679.363,	1.11882,	0.0074935,	1,	346.658,	3.589637e-08,	346.956,	4.634412e-11,	346.882,	5.037671e-11,	346.584,	1.77421e-09,	346.733,	4.338354e-09,	346.807,	1.369847e-09,	347.031,	3.856155e-09
691.656,	1.36475,	0.0132127,	1,	369.727,	3.691993e-08,	370.024,	3.655205e-11,	369.949,	3.496513e-11,	369.651,	1.784259e-09,	369.8,	2.995299e-09,	369.875,	1.001048e-09,	370.098,	3.942517e-09
703.95,	1.61067,	0.0238815,	1,	392.797,	3.689682e-08,	393.095,	2.981088e-11,	393.02,	9.793888e-12,	392.722,	1.741473e-09,	392.871,	6.589613e-10,	392.946,	4.646755e-10,	393.169,	3.944062e-09
715.506,	1.55911,	0.00179061,	1,	415.864,	3.735132e-08,	416.162,	2.663482e-11,	416.088,	7.099403e-12,	415.79,	1.769683e-09,	415.939,	4.152229e-10,	416.013,	3.95241e-10,	416.237,	4.022267e-09
727.799,	1.3132,	-0.000188822,	1,	438.935,	3.757651e-08,	439.233,	2.529808e-11,	439.158,	6.144275e-12,	438.86,	1.760635e-09,	439.009,	3.739143e-10,	439.084,	3.806621e-10,	439.307,	3.976493e-09
740.093,	1.06728,	-0.00114758,	1,	462.004,	3.686049e-08,	462.302,	2.471599e-11,	462.227,	6.417397e-12,	461.929,	1.780824e-09,	462.078,	3.644268e-10,	462.153,	3.728146e-10,	462.376,	3.959191e-09
752.386,	0.821403,	-0.00759315,	1,	485.073,	3.749119e-08,	485.371,	2.425769e-11,	485.297,	5.600586e-12,	484.999,	1.791801e-09,	485.148,	3.425999e-10,	485.222,	3.624049e-10,	485.446,	3.98903e-09
764.68,	0.575538,	-0.00259692,	1,	508.142,	3.689802e-08,	508.44,	2.32028e-11,	508.366,	5.503948e-12,	508.068,	1.808746e-09,	508.217,	3.032923e-10,	508.291,	3.458972e-10,	508.515,	4.008597e-09
776.974,	0.329659,	-0.00172738,	1,	531.212,	3.741478e-08,	531.51,	3.775334e-11,	531.435,	4.780894e-12,	531.137,	1.814268e-09,	531.286,	2.941591e-10,	531.361,	4.149323e-10,	531.584,	3.989014e-09
789.267,	0.08370886,	-0.0142454,	1,	554.28,	3.678779e-08,	554.578,	4.282528e-11,	554.504,	4.477771e-12,	554.206,	1.816608e-09,	554.355,	2.913995e-10,	554.429,	6.043169e-10,	554.653,	4.019132e-09
800.924,	0.170475,	0.00735375,	1,	577.35,	3.680004e-08,	577.648,	3.227333e-11,	577.574,	4.201693e-12,	577.276,	1.84519e-09,	577.425,	2.744336e-10,	577.499,	3.844144e-10,	577.723,	4.017412e-09
813.217,	0.4162564,	0.000544181,	1,	600.42,	3.701889e-08,	600.717,	3.219095e-11,	600.642,	5.356786e-12,	600.345,	1.841389e-09,	600.493,	4.111965e-10,	600.569,	3.453245e-10,	600.791,	4.014022e-09
825.511,	0.6621536,	0.000618111,	1,	623.488,	3.705276e-08,	623.786,	2.811128e-11,	623.711,	4.537595e-12,	623.413,	5.913357e-09,	623.562,	2.548194e-10,	623.637,	3.137795e-10,	623.86,	4.014689e-09
837.804,	0.908084,	0.00328026,	1,	646.556,	3.703732e-08,	646.854,	2.433502e-11,	646.78,	4.421456e-12,	646.482,	1.883349e-09,	646.631,	2.471007e-10,	646.705,	3.064893e-10,	646.929,	3.945448e-09
849.543,	1.14282,	0.00826003,	2,	669.627,	3.698547e-08,	669.925,	2.985421e-11,	669.85,	4.160687e-12,	669.552,	1.891618e-09,	669.701,	2.431182e-10,	669.776,	3.07633e-10,	669.999,	4.01659e-09
861.837,	1.38872,	0.0125525,	2,	692.695,	3.677362e-08,	692.993,	6.35439e-11,	692.918,	3.751661e-12,	692.62,	1.885186e-09,	692.769,	2.420865e-10,	692.844,	3.10256e-10,	693.067,	4.028503e-09
874.13,	1.63466,	0.033668,	2,	715.764,	3.711844e-08,	716.062,	8.08895e-11,	715.988,	4.156947e-12,	715.69,	1.863891e-09,	715.839,	2.426639e-10,	715.913,	6.010075e-10,	716.137,	3.947498e-09
885.686,	1.53512,	0.00111015,	2,	738.833,	3.720163e-08,	739.132,	5.194428e-11,	739.057,	4.640609e-12,	738.76,	1.88289e-09,	738.908,	3.593768e-10,	738.983,	3.805791e-10,	739.207,	4.014086e-09
897.98,	1.2892,	-0.000297537,	2,	761.903,	3.730935e-08,	762.201,	4.729808e-11,	762.126,	3.632355e-12,	761.828,	1.89682e-09,	761.977,	2.239075e-10,	762.052,	3.041142e-10,	762.275,	4.019365e-09
910.273,	1.04329,	-0.00141404,	2,	784.972,	3.75991e-08,	785.27,	3.577219e-11,	785.196,	3.82048e-12,	784.898,	1.909442e-09,	785.047,	2.17148e-10,	785.121,	2.971682e-10,	785.345,	3.993472e-09
922.567,	0.797382,	-0.0112498,	2,	808.04,	3.769491e-08,	808.338,	2.919158e-11,	808.264,	3.619676e-12,	807.966,	1.937648e-09,	808.115,	2.131478e-10,	808.189,	2.961565e-10,	808.413,	3.987312e-09
934.86,	0.551526,	-0.00171081,	2,	831.111,	3.824056e-08,	831.408,	3.012434e-11,	831.333,	3.74818e-12,	831.036,	1.931618e-09,	831.184,	2.1045e-10,	831.26,	2.905877e-10,	831.483,	4.017056e-09
947.154,	0.30565,	-0.00246151,	2,	854.18,	3.725129e-08,	854.478,	5.547174e-11,	854.403,	3.612714e-12,	854.105,	1.932643e-09,	854.254,	2.126761e-10,	854.329,	2.9676e-10,	854.552,	3.993427e-09
959.447,	0.0597206,	-0.0177086,	2,	877.249,	3.672358e-08,	877.547,	8.966661e-11,	877.473,	3.312775e-12,	877.175,	1.884619e-09,	877.324,	2.152078e-10,	877.398,	9.637053e-10,	877.622,	3.963134e-09
971.104,	0.194432,	0.00662203,	2,	900.317,	3.722728e-08,	900.615,	5.715779e-11,	900.54,	3.979199e-12,	900.242,	1.912356e-09,	900.391,	2.108108e-10,	900.466,	3.848654e-10,	900.689,	4.008456e-09
983.398,	0.440262,	0.000542009,	2,	923.388,	3.730958e-08,	923.686,	4.498361e-11,	923.611,	3.434947e-12,	923.313,	1.935492e-09,	923.462,	2.053516e-10,	923.537,	3.131019e-10,	923.76,	3.960539e-09
995.691,	0.686149,	0.00079424,	2,	946.456,	3.740602e-08,	946.754,	3.744538e-11,	946.68,	3.413668e-12,	946.382,	1.937451e-09,	946.531,	1.99759e-10,	946.605,	2.883958e-10,	946.829,	3.968687e-09
1007.43,	0.920957,	0.003897,	3,	969.526,	3.781858e-08,	969.824,	2.999456e-11,	969.75,	3.421427e-12,	969.452,	2.01035e-09,	969.601,	1.978151e-10,	969.675,	2.860548e-10,	969.899,	3.954748e-09
1019.72,	1.166824,	0.00843933,	3,	992.594,	3.722974e-08,	992.892,	2.63275e-11,	992.817,	3.110962e-12,	992.519,	1.957966e-09,	992.668,	1.964628e-10,	992.743,	2.839046e-10,	992.966,	3.966216e-09
1032.02,	1.41271,	0.0118566,	3,	1015.66,	3.787308e-08,	1015.96,	4.460131e-11,	1015.89,	3.159164e-12,	1015.59,	1.964758e-09,	1015.74,	1.953919e-10,	1015.81,	2.850209e-10,	1016.04,	3.958865e-09
1044.31,	1.65862,	0.0537921,	3,	1038.73,	3.737762e-08,	1039.03,	7.468683e-11,	1038.96,	3.596553e-12,	1038.66,	1.961316e-09,	1038.81,	2.033704e-10,	1038.88,	3.321331e-10,	1039.11,	3.960756e-09
1055.87,	1.5111,	0.000628907,	3,	1061.8,	3.746189e-08,	1062.1,	6.059146e-11,	1062.03,	3.229092e-12,	1061.73,	1.934251e-09,	1061.88,	1.992447e-10,	1061.95,	4.795911e-10,	1062.17,	3.954074e-09
1068.16,	1.26521,	-0.000411287,	3,	1084.87,	3.711797e-08,	1085.17,	4.283586e-11,	1085.1,	3.509768e-12,	1084.8,	1.962082e-09,	1084.95,	1.948227e-10,	1085.02,	3.30322e-10,	1085.24,	3.964056e-09
1080.45,	1.019318,	-0.00171038,	3,	1107.94,	3.709001e-08,	1108.24,	3.918669e-11,	1108.16,	4.378532e-12,	1107.87,	1.973016e-09,	1108.02,	2.772427e-10,	1108.09,	3.028454e-10,	1108.31,	4.011215e-09
1092.75,	0.773412,	-0.0179403,	3,	1131.01,	3.829149e-08,	1131.31,	3.124076e-11,	1131.23,	3.355218e-12,	1130.93,	4.377624e-09,	1131.08,	1.87551e-10,	1131.16,	2.823224e-10,	1131.38,	4.02239e-09
1105.04,	0.52754,	-0.00135878,	3,	1154.08,	3.752381e-08,	1154.38,	2.665371e-11,	1154.3,	3.280354e-12,	1154,	1.996032e-09,	1154.15,	1.863454e-10,	1154.23,	2.791431e-10,	1154.45,	4.009196e-09
1117.33,	0.281639,	-0.00395327,	3,	1177.15,	3.754799e-08,	1177.44,	3.551524e-11,	1177.37,	2.998081e-12,	1177.07,	1.992509e-09,	1177.22,	1.857755e-10,	1177.3,	2.792709e-10,	1177.52,	3.953676e-09
1129.63,	0.0357332,	-0.0365906,	3,	1200.22,	3.789853e-08,	1200.51,	5.907648e-11,	1200.44,	3.007098e-12,	1200.14,	1.983882e-09,	1200.29,	1.884777e-10,	1200.37,	2.816845e-10,	1200.59,	3.951245e-09
1141.28,	0.218442,	0.00603406,	3,	1223.29,	3.711552e-08,	1223.58,	6.555988e-11,	1223.51,	3.093935e-12,	1223.21,	1.932141e-09,	1223.36,	1.914261e-10,	1223.43,	7.366147e-10,	1223.66,	3.968245e-09
1153.58,	0.464277,	0.00049592,	3,	1246.35,	3.798963e-08,	1246.65,	4.429039e-11,	1246.58,	3.530633e-12,	1246.28,	1.976753e-09,	1246.43,	1.862251e-10,	1246.5,	3.515194e-10,	1246.73,	3.95011e-09
1165.87,	0.710164,	0.000971044,	3,	1269.42,	3.75953e-08,	1269.72,	3.952387e-11,	1269.65,	2.910135e-12,	1269.35,	1.995677e-09,	1269.5,	1.799577e-10,	1269.57,	2.850812e-10,	1269.8,	3.95473e-09
1177.61,	0.944975,	0.00481644,	4,	1292.49,	3.749153e-08,	1292.79,	3.064883e-11,	1292.72,	3.041729e-12,	1292.42,	1.99953e-09,	1292.57,	1.853789e-10,	1292.64,	2.777119e-10,	1292.87,	3.985214e-09
1189.9,	1.190818,	0.00850134,	4,	1315.56,	3.745105e-08,	1315.86,	2.649882e-11,	1315.79,	3.286686e-12,	1315.49,	2.020392e-09,	1315.64,	1.79038e-10,	1315.71,	2.762541e-10,	1315.93,	3.945242e-09
1202.2,	1.43671,	0.0114661,	4,	1338.63,	3.752707e-08,	1338.93,	2.95476e-11,	1338.86,	3.419623e-12,	1338.56,	2.020982e-09,	1338.71,	1.788952e-10,	1338.78,	2.717325e-10,	1339,	3.924839e-09
1214.49,	1.68262,	0.0950362,	4,	1361.7,	3.764237e-08,	1362,	4.575624e-11,	1361.92,	3.316993e-12,	1361.63,	2.00523e-09,	1361.78,	1.812172e-10,	1361.85,	2.757949e-10,	1362.07,	3.939038e-09
1226.05,	1.48711,	0.00025606,	4,	1384.77,	3.648526e-08,	1385.07,	6.916867e-11,	1384.99,	2.902156e-12,	1384.7,	1.916572e-09,	1384.85,	1.878433e-10,	1384.92,	1.375192e-09,	1385.14,	3.926885e-09
1238.34,	1.24122,	-0.000535636,	4,	1407.84,	3.789859e-08,	1408.14,	4.446608e-11,	1408.06,	3.15412e-12,	1407.76,	2.001124e-09,	1407.91,	1.80368e-10,	1407.99,	4.120157e-10,	1408.21,	3.908939e-09
1250.63,	0.995346,	-0.00205966,	4,	1430.91,	3.746142e-08,	1431.21,	3.673841e-11,	1431.13,	3.165873e-12,	1430.83,	2.009029e-09,	1430.98,	1.774567e-10,	1431.06,	3.040873e-10,	1431.28,	3.976386e-09
1262.93,	0.749422,	-0.0296767,	4,	1453.98,	3.760077e-08,	1454.28,	3.152475e-11,	1454.2,	3.21631e-12,	1453.9,	2.005425e-09,	1454.05,	1.744989e-10,	1454.13,	2.783198e-10,	1454.35,	3.926774e-09
1275.22,	0.503546,	-0.00118644,	4,	1477.05,	3.753407e-08,	1477.34,	2.638069e-11,	1477.27,	2.73049e-12,	1476.97,	2.069151e-09,	1477.12,	1.743628e-10,	1477.19,	2.7166e-10,	1477.42,	3.943449e-09
1287.51,	0.257591,	-0.00547656,	4,	1500.12,	3.754095e-08,	1500.41,	2.515234e-11,	1500.34,	2.564437e-12,	1500.04,	2.01773e-09,	1500.19,	1.7144e-10,	1500.27,	2.703443e-10,	1500.49,	3.911148e-09
1299.71,	0.0137905,	-0.228696,	4,	1523.18,	3.765122e-08,	1523.48,	3.000454e-11,	1523.41,	2.965041e-12,	1523.11,	2.025264e-09,	1523.26,	1.739595e-10,	1523.33,	2.690635e-10,	1523.56,	3.91932e-09
1311.46,	0.2424006,	0.00571888,	4,	1546.26,	3.741642e-08,	1546.55,	2.615583e-11,	1546.48,	3.082899e-12,	1546.18,	2.01918e-09,	1546.33,	1.712103e-10,	1546.4,	2.675674e-10,	1546.63,	3.92395e-09
1323.76,	0.4882383,	0.000463297,	4,	1569.32,	3.716323e-08,	1569.62,	2.530007e-11,	1569.55,	5.250186e-12,	1569.25,	2.033115e-09,	1569.4,	3.698647e-10,	1569.47,	3.118374e-10,	1569.7,	3.906035e-09
1336.05,	0.734121,	0.00116388,	4,	1592.39,	3.789857e-08,	1592.69,	2.385816e-11,	1592.62,	3.004153e-12,	1592.32,	2.028008e-09,	1592.47,	1.70369e-10,	1592.54,	2.678686e-10,	1592.76,	3.916812e-09
1347.79,	0.968941,	0.00561434,	5,	1615.46,	3.78658e-08,	1615.76,	2.270716e-11,	1615.68,	2.800982e-12,	1615.39,	2.058277e-09,	1615.54,	1.697128e-10,	1615.61,	2.678768e-10,	1615.83,	3.936817e-09
1360.08,	1.214828,	0.00859341,	5,	1638.53,	3.715279e-08,	1638.83,	2.286096e-11,	1638.75,	2.913017e-12,	1638.46,	2.046365e-09,	1638.61,	1.676818e-10,	1638.68,	2.667855e-10,	1638.9,	3.968637e-09
1372.38,	1.460708,	0.011034,	5,	1661.6,	3.755582e-08,	1661.9,	2.260263e-11,	1661.82,	2.870018e-12,	1661.53,	2.044931e-09,	1661.67,	1.666306e-10,	1661.75,	2.681735e-10,	1661.97,	3.909714e-09
1384.36,	1.70044,	0.158947,	5,	1684.67,	3.739049e-08,	1684.97,	2.195143e-11,	1684.89,	3.038937e-12,	1684.6,	2.044893e-09,	1684.74,	1.653649e-10,	1684.82,	2.649331e-10,	1685.04,	3.921592e-09
1396.23,	1.46312,	-3.13807e-06,	5,	1707.74,	3.756675e-08,	1708.04,	2.161913e-11,	1707.96,	2.806788e-12,	1707.66,	2.04385e-09,	1707.81,	1.663539e-10,	1707.89,	2.672606e-10,	1708.11,	3.890837e-09
1408.52,	1.21722,	-0.000651568,	5,	1730.81,	3.738599e-08,	1731.11,	2.127961e-11,	1731.03,	3.504531e-12,	1730.73,	2.050206e-09,	1730.88,	2.195436e-10,	1730.96,	2.743075e-10,	1731.18,	3.936934e-09
1420.81,	0.9713189,	-0.00246841,	5,	1753.88,	3.753926e-08,	1754.17,	2.207377e-11,	1754.1,	2.967556e-12,	1753.8,	2.063506e-09,	1753.95,	1.661915e-10,	1754.03,	2.651951e-10,	1754.25,	3.935227e-09
1433.11,	0.725442,	-0.0375241,	5,	1776.95,	3.80587e-08,	1777.24,	2.108187e-11,	1777.17,	2.812498e-12,	1776.87,	2.067156e-09,	1777.02,	1.648153e-10,	1777.1,	2.666954e-10,	1777.32,	3.955273e-09
1445.4,	0.47959,	-0.00106913,	5,	1800.01,	3.770893e-08,	1800.31,	2.125827e-11,	1800.24,	3.050507e-12,	1799.94,	2.068817e-09,	1800.09,	1.658172e-10,	1800.16,	2.670681e-10,	1800.39,	3.916785e-09
1457.69,	0.233605,	-0.00555433,	5,	1823.08,	3.76625e-08,	1823.38,	2.323128e-11,	1823.31,	3.057692e-12,	1823.01,	2.078932e-09,	1823.16,	1.645866e-10,	1823.23,	2.644363e-10,	1823.46,	3.927788e-09
1469.34,	0.020323,	0.0924722,	5,	1846.15,	3.741102e-08,	1846.45,	2.888749e-11,	1846.38,	2.882927e-12,	1846.08,	2.074976e-09,	1846.23,	1.67958e-10,	1846.3,	2.633748e-10,	1846.53,	3.928694e-09
1481.63,	0.2661421,	0.00588365,	5,	1869.22,	3.806594e-08,	1869.52,	3.144142e-11,	1869.44,	3.133842e-12,	1869.15,	2.074957e-09,	1869.3,	1.653747e-10,	1869.37,	2.675022e-10,	1869.59,	3.892705e-09
1493.92,	0.511895,	0.000467363,	5,	1892.29,	3.723362e-08,	1892.59,	3.315304e-11,	1892.52,	2.965539e-12,	1892.22,	2.0711e-09,	1892.37,	1.654822e-10,	1892.44,	2.66264e-10,	1892.66,	3.890125e-09
1506.22,	0.757817,	0.00137083,	5,	1915.36,	3.764357e-08,	1915.66,	3.365427e-11,	1915.58,	3.024707e-12,	1915.29,	2.076574e-09,	1915.43,	1.624555e-10,	1915.51,	2.733141e-10,	1915.73,	3.89926e-09
1527.74,	0.849766,	7.8817e-07,	6,	1938.43,	3.753088e-08,	1938.73,	3.153861e-11,	1938.65,	2.882208e-12,	1938.36,	2.072516e-09,	1938.5,	1.650732e-10,	1938.58,	2.951895e-10,	1938.8,	3.875982e-09
1568.74,	0.847275,	3.304242e-07,	6,	1961.5,	3.761122e-08,	1961.8,	2.916287e-11,	1961.72,	2.854818e-12,	1961.42,	2.067594e-09,	1961.57,	1.648404e-10,	1961.65,	3.144299e-10,	1961.87,	3.885554e-09
1609.74,	0.858121,	7.50024e-07,	6,	1984.57,	3.75089e-08,	1984.87,	2.646368e-11,	1984.79,	2.757679e-12,	1984.49,	2.059393e-09,	1984.64,	1.611572e-10,	1984.72,	3.214584e-10,	1984.94,	3.882606e-09
1650.74,	0.869017,	4.06715e-07,	6,	2007.64,	3.81496e-08,	2007.93,	2.438138e-11,	2007.86,	3.185068e-12,	2007.56,	2.083749e-09,	2007.71,	1.652607e-10,	2007.79,	3.304985e-10,	2008.01,	3.939345e-09
1691.74,	0.878442,	4.06715e-07,	6,	2030.71,	3.804052e-08,	2031,	2.393067e-11,	2030.93,	3.018863e-12,	2030.63,	2.077146e-09,	2030.78,	1.601392e-10,	2030.86,	3.323687e-10,	2031.08,	3.906129e-09
1732.74,	0.886075,	4.4486e-07,	6,	2053.78,	3.839703e-08,	2054.07,	2.260383e-11,	2054,	3.010095e-12,	2053.7,	2.078851e-09,	2053.85,	1.604808e-10,	2053.92,	3.334165e-10,	2054.15,	3.900779e-09
1773.74,	0.892826,	1.398497e-06,	6,	2076.84,	3.739058e-08,	2077.14,	2.227128e-11,	2077.07,	3.079987e-12,	2076.77,	2.097712e-09,	2076.92,	1.586789e-10,	2076.99,	3.342868e-10,	2077.22,	3.865069e-09
1813.44,	0.898251,	0.00249775,	7,	2099.91,	3.740235e-08,	2100.21,	2.179179e-11,	2100.14,	2.702998e-12,	2099.84,	2.069701e-09,	2099.99,	1.590975e-10,	2100.06,	3.375377e-10,	2100.29,	3.827763e-09
1850.24,	1.18517,	0.00250122,	7,	2122.98,	3.768376e-08,	2123.28,	2.127011e-11,	2123.21,	2.717518e-12,	2122.91,	2.07687e-09,	2123.06,	1.589377e-10,	2123.13,	2.936527e-10,	2123.36,	3.911347e-09
1891.24,	1.36698,	0.00250065,	7,	2146.05,	3.766001e-08,	2146.35,	2.032321e-11,	2146.28,	2.784705e-12,	2145.98,	2.097281e-09,	2146.13,	1.577629e-10,	2146.2,	2.689357e-10,	2146.42,	3.865365e-09
1932.24,	1.5141,	0.00250092,	7,	2169.12,	3.731548e-08,	2169.42,	2.032752e-11,	2169.35,	3.115953e-12,	2169.05,	2.089481e-09,	2169.2,	1.579785e-10,	2169.27,	2.636296e-10,	2169.49,	3.894442e-09
1973.24,	1.55347,	0.00250065,	7,	2192.19,	3.738707e-08,	2192.49,	1.973616e-11,	2192.41,	2.946107e-12,	2192.12,	2.104016e-09,	2192.27,	1.572136e-10,	2192.34,	2.64489e-10,	2192.56,	3.857455e-09
2014.24,	1.56923,	0.00250103,	7,	2215.26,	3.77718e-08,	2215.56,	1.983445e-11,	2215.48,	2.525964e-12,	2215.18,	2.096269e-09,	2215.33,	1.554862e-10,	2215.41,	2.639128e-10,	2215.63,	3.894891e-09
2055.24,	1.57854,	0.00250065,	7,	2238.33,	3.778312e-08,	2238.63,	1.949695e-11,	2238.55,	3.656244e-12,	2238.25,	2.097916e-09,	2238.4,	2.507063e-10,	2238.48,	2.810049e-10,	2238.7,	3.844325e-09
2096.24,	1.58516,	0.00250054,	7,	2261.4,	3.758177e-08,	2261.69,	1.969519e-11,	2261.62,	2.464205e-12,	2261.32,	2.101855e-09,	2261.47,	1.544251e-10,	2261.55,	2.611304e-10,	2261.77,	3.81941e-09
2130.28,	1.44293,	7.8817e-07,	8,	2284.47,	3.767988e-08,	2284.76,	1.967229e-11,	2284.69,	2.638294e-12,	2284.39,	2.104969e-09,	2284.54,	1.566444e-10,	2284.62,	2.63189e-10,	2284.84,	3.864464e-09
2171.28,	1.37004,	7.118789e-07,	8,	2307.54,	3.780006e-08,	2307.83,	1.879053e-11,	2307.76,	2.909179e-12,	2307.46,	2.105362e-09,	2307.61,	1.549529e-10,	2307.68,	2.614161e-10,	2307.91,	3.855758e-09
2212.28,	1.32613,	7.8817e-07,	8,	2330.6,	3.777763e-08,	2330.9,	1.938905e-11,	2330.83,	2.618907e-12,	2330.53,	2.103923e-09,	2330.68,	1.531091e-10,	2330.75,	2.575479e-10,	2330.98,	3.8484e-09
2253.28,	1.294,	1.77842e-07,	8,	2353.67,	3.744445e-08,	2353.97,	1.899916e-11,	2353.9,	2.894202e-12,	2353.6,	2.100544e-09,	2353.75,	1.531238e-10,	2353.82,	2.579094e-10,	2354.05,	3.875098e-09
2294.28,	1.26878,	2.54133e-07,	8,	2376.74,	3.82151e-08,	2377.04,	1.925465e-11,	2376.97,	2.523106e-12,	2376.67,	2.120162e-09,	2376.82,	1.559226e-10,	2376.89,	2.56982e-10,	2377.12,	3.901494e-09
2335.28,	1.24823,	9.40751e-07,	8,	2399.81,	3.75273e-08,	2400.11,	1.933751e-11,	2400.04,	2.798971e-12,	2399.74,	2.102549e-09,	2399.89,	1.536629e-10,	2399.96,	2.571431e-10,	2400.18,	3.870602e-09
2376.28,	1.23104,	5.97442e-07,	8,	2422.88,	3.806595e-08,	2423.18,	2.011383e-11,	2423.11,	2.704614e-12,	2422.81,	2.100842e-09,	2422.96,	1.519216e-10,	2423.03,	3.310959e-10,	2423.25,	3.909922e-09
2413.52,	1.237445,	0.0050017,	9,	2445.95,	3.749842e-08,	2446.25,	2.155017e-11,	2446.17,	2.663224e-12,	2445.88,	2.100294e-09,	2446.03,	1.541547e-10,	2446.1,	3.919519e-10,	2446.32,	3.888891e-09
2423.23,	1.59981,	0.00500154,	9,	2469.02,	3.765125e-08,	2469.32,	2.068971e-11,	2469.24,	2.912545e-12,	2468.95,	2.100352e-09,	2469.1,	1.544977e-10,	2469.17,	3.996003e-10,	2469.39,	3.851689e-09
2464.23,	1.61757,	0.00500158,	9,	2492.09,	3.727112e-08,	2492.39,	2.125392e-11,	2492.31,	2.718421e-12,	2492.02,	2.087815e-09,	2492.16,	1.532608e-10,	2492.24,	4.103161e-10,	2492.46,	3.850732e-09
2505.23,	1.62482,	0.00500067,	9,	2515.16,	3.741321e-08,	2515.46,	2.104511e-11,	2515.38,	2.867754e-12,	2515.08,	2.096689e-09,	2515.23,	1.52959e-10,	2515.31,	4.150517e-10,	2515.53,	3.871973e-09
2546.23,	1.62986,	0.0050012,	9,	2538.23,	3.740261e-08,	2538.53,	2.071322e-11,	2538.45,	2.97728e-12,	2538.15,	2.087966e-09,	2538.3,	1.527652e-10,	2538.38,	4.116399e-10,	2538.6,	3.812695e-09
2587.23,	1.63377,	0.005001009,	9,	2561.3,	3.795682e-08,	2561.59,	2.05013e-11,	2561.52,	2.425289e-12,	2561.22,	2.091068e-09,	2561.37,	1.51381e-10,	2561.44,	4.129536e-10,	2561.67,	3.871282e-09
2628.23,	1.63702,	0.00500078,	9,	2584.37,	3.71726e-08,	2584.66,	2.030133e-11,	2584.59,	2.782862e-12,	2584.29,	2.082958e-09,	2584.44,	1.517808e-10,	2584.52,	4.077867e-10,	2584.74,	3.825942e-09
2669.23,	1.6398,	0.00500055,	9,	2607.44,	3.744789e-08,	2607.73,	1.983093e-11,	2607.66,	2.98704e-12,	2607.36,	2.092168e-09,	2607.51,	1.544287e-10,	2607.59,	4.15802e-10,	2607.81,	3.884551e-09
2710.23,	1.64227,	0.0050017,	9,	2630.5,	3.74532e-08,	2630.8,	2.062973e-11,	2630.73,	2.812156e-12,	2630.43,	2.108227e-09,	2630.58,	1.510786e-10,	2630.65,	4.143338e-10,	2630.88,	3.911178e-09
2742.32,	1.46175,	7.118789e-07,	10,	2653.57,	3.743507e-08,	2653.87,	2.033975e-11,	2653.8,	2.510663e-12,	2653.5,	2.083916e-09,	2653.65,	1.514315e-10,	2653.72,	4.116357e-10,	2653.95,	3.828089e-09
2783.32,	1.41581,	1.055188e-06,	10,	2676.64,	3.721253e-08,	2676.94,	2.006803e-11,	2676.87,	2.629068e-12,	2676.57,	2.102474e-09,	2676.72,	1.501302e-10,	2676.79,	4.120131e-10,	2677.02,	3.816073e-09
2824.32,	1.38354,	5.97442e-07,	10,	2699.71,	3.819689e-08,	2700.01,	1.994276e-11,	2699.93,	2.340962e-12,	2699.64,	2.093878e-09,	2699.79,	1.515343e-10,	2699.86,	4.089104e-10,	2700.08,	3.873167e-09
2865.32,	1.3572,	7.8817e-07,	10,	2722.78,	3.846258e-08,	2723.08,	1.954386e-11,	2723.01,	2.680774e-12,	2722.71,	2.114281e-09,	2722.86,	1.495531e-10,	2722.93,	3.260633e-10,	2723.15,	3.848101e-09
2906.32,	1.334502,	1.01704e-06,	10,	2745.85,	3.762413e-08,	2746.15,	1.903718e-11,	2746.07,	2.760986e-12,	2745.77,	2.109237e-09,	2745.92,	1.489302e-10,	2746,	2.74814e-10,	2746.22,	3.826008e-09
2947.32,	1.31466,	6.73733e-07,	10,	2768.92,	3.763991e-08,	2769.22,	1.888365e-11,	2769.14,	2.863216e-12,	2768.85,	2.117427e-09,	2768.99,	1.498325e-10,	2769.07,	2.633837e-10,	2769.29,	3.831262e-09
2988.32,	1.29708,	8.64461e-07,	10,	2791.99,	3.841513e-08,	2792.29,	1.911513e-11,	2792.21,	2.624285e-12,	2791.91,	2.129912e-09,	2792.06,	1.497109e-10,	2792.14,	2.594691e-10,	2792.36,	3.868907e-09
3013.68,	1.42838,	0.010002,	11,	2815.06,	3.753937e-08,	2815.36,	1.886961e-11,	2815.28,	2.61662e-12,	2814.98,	2.131031e-09,	2815.13,	1.501149e-10,	2815.21,	2.607434e-10,	2815.43,	3.851471e-09
3035.05,	1.6597,	0.0100015,	11,	2838.13,	3.812426e-08,	2838.42,	1.889785e-11,	2838.35,	2.718386e-12,	2838.05,	2.131039e-09,	2838.2,	1.602155e-10,	2838.28,	2.59587e-10,	2838.5,	3.833739e-09
3076.05,	1.66824,	0.0100015,	11,	2861.2,	3.766443e-08,	2861.49,	1.935424e-11,	2861.42,	2.569839e-12,	2861.12,	2.139551e-09,	2861.27,	1.478095e-10,	2861.35,	2.576393e-10,	2861.57,	3.841619e-09
3117.05,	1.67317,	0.0100017,	11,	2884.27,	3.788801e-08,	2884.56,	1.825843e-11,	2884.49,	2.472368e-12,	2884.19,	2.149566e-09,	2884.34,	1.468607e-10,	2884.41,	2.575355e-10,	2884.64,	3.855275e-09
3158.05,	1.67685,	0.0100014,	11,	2907.33,	3.761257e-08,	2907.63,	1.877111e-11,	2907.56,	2.769291e-12,	2907.26,	2.137652e-09,	2907.41,	1.477413e-10,	2907.48,	2.526234e-10,	2907.71,	3.876464e-09
3199.05,	1.67996,	0.0100009,	11,	2930.4,	3.758094e-08,	2930.7,	1.874531e-11,	2930.63,	2.284665e-12,	2930.33,	2.148295e-09,	2930.48,	1.472788e-10,	2930.55,	2.546641e-10,	2930.78,	3.826531e-09
3240.05,	1.68256,	0.0100015,	11,	2953.47,	3.767427e-08,	2953.77,	1.861597e-11,	2953.7,	2.784158e-12,	2953.4,	2.141539e-09,	2953.55,	1.465923e-10,	2953.62,	2.53998e-10,	2953.85,	3.846659e-09
3281.05,	1.68486,	0.0100014,	11,	2976.54,	3.778582e-08,	2976.84,	1.80894e-11,	2976.77,	2.618637e-12,	2976.47,	2.143212e-09,	2976.62,	1.588564e-10,	2976.69,	2.564649e-10,	2976.91,	3.837728e-09
3313.92,	1.61597,	6.73733e-07,	12,	2999.61,	3.806601e-08,	2999.91,	1.860576e-11,	2999.83,	2.76565e-12,	2999.54,	2.132842e-09,	2999.68,	1.466859e-10,	2999.76,	2.52818e-10,	2999.98,	3.848978e-09
3352.08,	1.46956,	7.8817e-07,	12,	3022.68,	3.80878e-08,	3022.98,	1.923997e-11,	3022.9,	2.462877e-12,	3022.61,	2.135293e-09,	3022.76,	1.489545e-10,	3022.83,	4.350995e-10,	3023.05,	3.863204e-09
3393.08,	1.43193,	9.40752e-07,	12,	3045.75,	3.71675e-08,	3046.05,	2.046512e-11,	3045.97,	2.66936e-12,	3045.67,	2.109336e-09,	3045.82,	1.477773e-10,	3045.9,	5.302649e-10,	3046.12,	3.876896e-09
3434.08,	1.40415,	7.11879e-07,	12,	3068.82,	3.790587e-08,	3069.12,	1.980893e-11,	3069.04,	2.524808e-12,	3068.74,	2.100506e-09,	3068.89,	1.464743e-10,	3068.97,	5.506389e-10,	3069.19,	3.846919e-09
3475.08,	1.38079,	5.21151e-07,	12,	3091.89,	3.7178e-08,	3092.18,	1.997084e-11,	3092.11,	2.39682e-12,	3091.81,	2.092677e-09,	3091.96,	1.480951e-10,	3092.04,	5.606104e-10,	3092.26,	3.819284e-09
3516.08,	1.3604,	1.28406e-06,	12,	3114.96,	3.794954e-08,	3115.25,	2.024261e-11,	3115.18,	2.609788e-12,	3114.88,	2.101829e-09,	3115.03,	1.457987e-10,	3115.11,	5.681142e-10,	3115.33,	3.874003e-09
3557.08,	1.34205,	8.64461e-07,	12,	3138.03,	3.736661e-08,	3138.32,	2.078101e-11,	3138.25,	2.752927e-12,	3137.95,	2.101853e-09,	3138.1,	1.481071e-10,	3138.17,	5.629374e-10,	3138.4,	3.868752e-09
3598.08,	1.325482,	5.59297e-07,	12,	3161.1,	3.713027e-08,	3161.39,	2.021021e-11,	3161.32,	2.81966e-12,	3161.02,	2.092242e-09,	3161.17,	1.48857e-10,	3161.24,	5.715022e-10,	3161.47,	3.77268e-09
3613.73,	1.56175,	0.0150018,	13,	3184.16,	3.727256e-08,	3184.46,	2.009227e-11,	3184.39,	2.606831e-12,	3184.09,	2.094453e-09,	3184.24,	1.486278e-10,	3184.31,	5.657546e-10,	3184.54,	3.88602e-09
3644.61,	1.69505,	0.0150023,	13,	3207.23,	3.794955e-08,	3207.53,	2.009374e-11,	3207.46,	2.74733e-12,	3207.16,	2.106136e-09,	3207.31,	1.465178e-10,	3207.38,	5.70453e-10,	3207.61,	3.896323e-09
3685.61,	1.70129,	0.0150019,	13,	3230.3,	3.734883e-08,	3230.6,	1.93717e-11,	3230.53,	2.265046e-12,	3230.23,	2.094833e-09,	3230.38,	1.508266e-10,	3230.45,	5.757264e-10,	3230.67,	3.828809e-09
3726.61,	1.70522,	0.015002,	13,	3253.37,	3.711475e-08,	3253.67,	2.016387e-11,	3253.6,	2.545689e-12,	3253.3,	2.106251e-09,	3253.45,	1.450364e-10,	3253.52,	5.713596e-10,	3253.74,	3.856256e-09
3767.61,	1.708163,	0.01500252,	13,	3276.44,	3.800409e-08,	3276.74,	1.977065e-11,	3276.66,	2.493495e-12,	3276.37,	2.098225e-09,	3276.52,	1.471426e-10,	3276.59,	5.75743e-10,	3276.81,	3.84093e-09
3808.61,	1.71078,	0.0150022,	13,	3299.51,	3.728228e-08,	3299.81,	2.011661e-11,	3299.73,	2.756171e-12,	3299.44,	2.091315e-09,	3299.59,	1.461871e-10,	3299.66,	5.718705e-10,	3299.88,	3.871498e-09
3849.61,	1.71293,	0.0150024,	13,	3322.58,	3.730313e-08,	3322.88,	1.960413e-11,	3322.8,	2.68971e-12,	3322.51,	2.109056e-09,	3322.65,	1.458521e-10,	3322.73,	3.851983e-10,	3322.95,	3.830945e-09
3890.61,	1.71496,	0.0150023,	13,	3345.65,	3.802957e-08,	3345.95,	1.945949e-11,	3345.87,	2.516476e-12,	3345.57,	2.132918e-09,	3345.72,	1.453209e-10,	3345.8,	2.898067e-10,	3346.02,	3.833046e-09
3919.47,	1.55323,	9.40751e-07,	14,	3368.72,	3.83935e-08,	3369.02,	1.886619e-11,	3368.94,	2.672194e-12,	3368.64,	2.134948e-09,	3368.79,	1.469061e-10,	3368.87,	2.708282e-10,	3369.09,	3.825593e-09
3960.47,	1.47421,	8.64461e-07,	14,	3391.79,	3.748877e-08,	3392.09,	1.87335e-11,	3392.01,	2.655737e-12,	3391.71,	2.145935e-09,	3391.86,	1.411258e-10,	3391.94,	2.62307e-10,	3392.16,	3.829336e-09
4001.47,	1.441389,	7.11879e-07,	14,	3414.86,	3.816055e-08,	3415.15,	1.823922e-11,	3415.08,	2.447955e-12,	3414.78,	2.150751e-09,	3414.93,	1.456607e-10,	3415,	2.594903e-10,	3415.23,	3.888577e-09
4042.47,	1.41635,	1.01704e-06,	14,	3437.92,	3.750624e-08,	3438.22,	1.879555e-11,	3438.15,	2.609934e-12,	3437.85,	2.139428e-09,	3438,	1.444401e-10,	3438.07,	2.555365e-10,	3438.3,	3.853693e-09
4083.47,	1.395273,	9.78897e-07,	14,	3460.99,	3.742347e-08,	3461.29,	1.834585e-11,	3461.22,	2.590357e-12,	3460.92,	2.147853e-09,	3461.07,	1.438427e-10,	3461.14,	2.538348e-10,	3461.37,	3.884494e-09
4124.47,	1.37656,	4.448606e-07,	14,	3484.06,	3.828428e-08,	3484.36,	1.876999e-11,	3484.29,	2.934888e-12,	3483.99,	2.156664e-09,	3484.14,	1.419796e-10,	3484.21,	2.556673e-10,	3484.43,	3.873609e-09
4165.47,	1.35984,	6.35588e-07,	14,	3507.13,	3.81169e-08,	3507.43,	1.79276e-11,	3507.36,	2.532166e-12,	3507.06,	2.148713e-09,	3507.21,	1.429542e-10,	3507.28,	2.532979e-10,	3507.51,	3.839608e-09
4206.47,	1.344584,	5.21151e-07,	14,	3530.2,	3.759939e-08,	3530.5,	1.89443e-11,	3530.42,	2.871079e-12,	3530.13,	2.166095e-09,	3530.28,	1.462614e-10,	3530.35,	2.547807e-10,	3530.57,	3.783248e-09
4213.88,	1.67553,	0.0200017,	15,	3553.27,	3.810964e-08,	3553.57,	1.866012e-11,	3553.49,	2.467773e-12,	3553.2,	2.156562e-09,	3553.35,	1.443774e-10,	3553.42,	2.527102e-10,	3553.64,	3.817025e-09
4253.36,	1.72097,	0.020002,	15,	3576.34,	3.824056e-08,	3576.64,	1.822383e-11,	3576.56,	2.551406e-12,	3576.27,	2.171384e-09,	3576.41,	1.425802e-10,	3576.49,	2.524463e-10,	3576.71,	3.813394e-09
4294.36,	1.72594,	0.0200021,	15,	3599.41,	3.742923e-08,	3599.71,	1.832873e-11,	3599.63,	2.360793e-12,	3599.33,	2.164154e-09,	3599.48,	1.421755e-10,	3599.56,	2.476346e-10,	3599.78,	3.84637e-09
4335.36,	1.7292,	0.0200017,	15,	3622.48,	3.719229e-08,	3622.78,	1.940554e-11,	3622.7,	2.528797e-12,	3622.4,	2.140834e-09,	3622.55,	1.434175e-10,	3622.63,	5.158453e-10,	3622.85,	3.788005e-09
4376.36,	1.73182,	0.0200022,	15,	3645.55,	3.722936e-08,	3645.84,	1.97971e-11,	3645.77,	2.662215e-12,	3645.47,	2.117052e-09,	3645.62,	1.447259e-10,	3645.69,	6.58857e-10,	3645.92,	3.837523e-09
4417.36,	1.73405,	0.0200018,	15,	3668.62,	3.733004e-08,	3668.91,	2.006955e-11,	3668.84,	2.859899e-12,	3668.54,	2.109438e-09,	3668.69,	1.445526e-10,	3668.77,	6.98226e-10,	3668.99,	3.834092e-09
4458.36,	1.73599,	0.0200015,	15,	3691.68,	3.746606e-08,	3691.98,	2.041979e-11,	3691.91,	2.782109e-12,	3691.61,	2.094581e-09,	3691.76,	1.460039e-10,	3691.83,	7.226755e-10,	3692.06,	3.839981e-09
4499.36,	1.73769,	0.0200022,	15,	3714.75,	3.705059e-08,	3715.05,	2.024982e-11,	3714.98,	2.786317e-12,	3714.68,	2.095452e-09,	3714.83,	1.441886e-10,	3714.9,	7.302624e-10,	3715.13,	3.880989e-09
4526.4,	1.536509,	3.6857e-07,	16,	3737.82,	3.731729e-08,	3738.12,	2.093036e-11,	3738.05,	2.489172e-12,	3737.75,	2.089242e-09,	3737.9,	1.432956e-10,	3737.97,	7.217735e-10,	3738.2,	3.838457e-09
4567.4,	1.47857,	8.64461e-07,	16,	3760.89,	3.701222e-08,	3761.19,	1.971781e-11,	3761.12,	2.629056e-12,	3760.82,	2.093126e-09,	3760.97,	1.442145e-10,	3761.04,	7.194926e-10,	3761.27,	3.866771e-09
4608.4,	1.44922,	8.26315e-07,	16,	3783.96,	3.713218e-08,	3784.26,	1.991345e-11,	3784.19,	2.603397e-12,	3783.89,	2.087337e-09,	3784.04,	1.443166e-10,	3784.11,	7.415855e-10,	3784.34,	3.809836e-09
4649.4,	1.4267,	4.06715e-07,	16,	3807.03,	3.726118e-08,	3807.33,	2.003995e-11,	3807.26,	2.411355e-12,	3806.96,	2.087208e-09,	3807.11,	1.443472e-10,	3807.18,	7.300455e-10,	3807.4,	3.869321e-09
4690.4,	1.407334,	5.21152e-07,	16,	3830.1,	3.778221e-08,	3830.4,	2.079321e-11,	3830.32,	2.371702e-12,	3830.03,	2.078332e-09,	3830.17,	1.446869e-10,	3830.25,	7.404133e-10,	3830.47,	3.819327e-09
4731.4,	1.38997,	1.16962e-06,	16,	3853.17,	3.680115e-08,	3853.47,	1.974555e-11,	3853.39,	2.769015e-12,	3853.1,	2.077623e-09,	3853.24,	1.426569e-10,	3853.32,	7.285721e-10,	3853.54,	3.807792e-09
4772.4,	1.37443,	9.02606e-07,	16,	3876.24,	3.729625e-08,	3876.54,	1.965588e-11,	3876.46,	2.80517e-12,	3876.16,	2.079413e-09,	3876.31,	1.835551e-10,	3876.39,	7.403014e-10,	3876.61,	3.804594e-09
4813.4,	1.35994,	9.78897e-07,	16,	3899.31,	3.691458e-08,	3899.61,	1.970457e-11,	3899.53,	2.590721e-12,	3899.23,	2.082268e-09,	3899.38,	1.422072e-10,	3899.46,	7.303938e-10,	3899.68,	3.820676e-09
,	,	,	,	3922.38,	3.714259e-08,	3922.67,	1.914798e-11,	3922.6,	2.712085e-12,	3922.3,	2.106556e-09,	3922.45,	1.420382e-10,	3922.53,	4.565966e-10,	3922.75,	3.82308e-09
,	,	,	,	3945.45,	3.713382e-08,	3945.74,	1.963568e-11,	3945.67,	2.781957e-12,	3945.37,	2.139413e-09,	3945.52,	1.413773e-10,	3945.6,	3.093785e-10,	3945.82,	3.845051e-09
,	,	,	,	3968.52,	3.728902e-08,	3968.81,	1.836937e-11,	3968.74,	2.735927e-12,	3968.44,	2.133649e-09,	3968.59,	1.403978e-10,	3968.66,	2.775594e-10,	3968.89,	3.769499e-09
,	,	,	,	3991.59,	3.744221e-08,	3991.88,	1.856675e-11,	3991.81,	3.788643e-12,	3991.51,	2.160948e-09,	3991.66,	3.080694e-10,	3991.73,	3.008009e-10,	3991.96,	3.816288e-09
,	,	,	,	4014.65,	3.75756e-08,	4014.95,	1.867938e-11,	4014.88,	2.527e-12,	4014.58,	2.165667e-09,	4014.73,	1.414886e-10,	4014.8,	2.624524e-10,	4015.03,	3.806897e-09
,	,	,	,	4037.72,	3.833517e-08,	4038.02,	1.837958e-11,	4037.95,	2.578356e-12,	4037.65,	2.174684e-09,	4037.8,	1.413558e-10,	4037.87,	2.559797e-10,	4038.1,	3.794094e-09
,	,	,	,	4060.79,	3.821868e-08,	4061.09,	1.838156e-11,	4061.02,	2.410249e-12,	4060.72,	2.168765e-09,	4060.87,	1.366044e-10,	4060.94,	2.533165e-10,	4061.16,	3.765644e-09
,	,	,	,	4083.86,	3.742605e-08,	4084.16,	1.814891e-11,	4084.09,	2.488353e-12,	4083.79,	2.165525e-09,	4083.94,	1.353957e-10,	4084.01,	2.48995e-10,	4084.23,	3.799262e-09
,	,	,	,	4106.93,	3.755143e-08,	4107.23,	1.824429e-11,	4107.15,	2.539885e-12,	4106.86,	2.165741e-09,	4107.01,	1.352562e-10,	4107.08,	2.49227e-10,	4107.3,	3.822133e-09
,	,	,	,	4132.01,	3.743561e-08,	4132.3,	1.747186e-11,	4132.23,	2.071255e-12,	4131.93,	2.159432e-09,	4132.08,	1.328164e-10,	4132.15,	2.50596e-10,	4132.38,	3.796815e-09
,	,	,	,	4155.07,	3.775897e-08,	4155.37,	1.786702e-11,	4155.3,	2.434655e-12,	4155,	2.17834e-09,	4155.15,	1.317475e-10,	4155.22,	2.477819e-10,	4155.45,	3.829553e-09
,	,	,	,	4178.14,	3.751459e-08,	4178.44,	1.74232e-11,	4178.37,	2.181239e-12,	4178.07,	2.175912e-09,	4178.22,	1.302562e-10,	4178.29,	2.45209e-10,	4178.52,	3.824297e-09
,	,	,	,	4201.21,	3.739702e-08,	4201.51,	1.775412e-11,	4201.44,	2.167945e-12,	4201.14,	2.173331e-09,	4201.29,	1.313994e-10,	4201.36,	2.483305e-10,	4201.59,	3.802895e-09
,	,	,	,	4224.28,	3.789139e-08,	4224.58,	1.919235e-11,	4224.51,	2.254151e-12,	4224.21,	2.14379e-09,	4224.36,	1.329869e-10,	4224.43,	6.009278e-10,	4224.65,	3.794226e-09
,	,	,	,	4247.35,	3.700066e-08,	4247.65,	2.058488e-11,	4247.57,	2.293531e-12,	4247.28,	2.11148e-09,	4247.42,	1.309227e-10,	4247.5,	8.097935e-10,	4247.72,	3.80757e-09
,	,	,	,	4270.42,	3.684613e-08,	4270.72,	2.018047e-11,	4270.64,	2.261668e-12,	4270.35,	2.089062e-09,	4270.49,	1.308113e-10,	4270.57,	8.481841e-10,	4270.79,	3.802273e-09
,	,	,	,	4293.49,	3.736008e-08,	4293.79,	2.024961e-11,	4293.71,	2.27435e-12,	4293.41,	2.08223e-09,	4293.56,	1.348579e-10,	4293.64,	8.749602e-10,	4293.86,	3.821088e-09
,	,	,	,	4316.56,	3.714404e-08,	4316.86,	2.010313e-11,	4316.78,	2.42344e-12,	4316.48,	2.086506e-09,	4316.63,	1.33633e-10,	4316.71,	8.778398e-10,	4316.93,	3.850342e-09
,	,	,	,	4339.63,	3.686979e-08,	4339.93,	2.000452e-11,	4339.85,	2.474747e-12,	4339.55,	2.082966e-09,	4339.7,	1.414837e-10,	4339.78,	8.876541e-10,	4340,	3.847681e-09
,	,	,	,	4362.7,	3.678753e-08,	4362.99,	2.003572e-11,	4362.92,	1.946407e-12,	4362.62,	2.063434e-09,	4362.77,	1.304336e-10,	4362.85,	8.891337e-10,	4363.07,	3.79841e-09
,	,	,	,	4385.77,	3.765488e-08,	4386.06,	1.991417e-11,	4385.99,	2.218977e-12,	4385.69,	2.073089e-09,	4385.84,	1.336258e-10,	4385.91,	8.817e-10,	4386.14,	3.790196e-09
,	,	,	,	4408.83,	3.66035e-08,	4409.13,	2.059361e-11,	4409.06,	3.915757e-12,	4408.76,	2.057613e-09,	4408.91,	2.798188e-10,	4408.98,	9.112749e-10,	4409.21,	3.83345e-09
,	,	,	,	4431.9,	3.748027e-08,	4432.2,	1.966807e-11,	4432.13,	2.328348e-12,	4431.83,	2.070941e-09,	4431.98,	1.301202e-10,	4432.05,	8.906799e-10,	4432.28,	3.81293e-09
,	,	,	,	4454.97,	3.670542e-08,	4455.27,	1.988502e-11,	4455.2,	2.520014e-12,	4454.9,	2.07171e-09,	4455.05,	1.318096e-10,	4455.12,	8.983998e-10,	4455.35,	3.753917e-09
,	,	,	,	4478.04,	3.667897e-08,	4478.34,	2.023757e-11,	4478.27,	2.312046e-12,	4477.97,	2.062539e-09,	4478.12,	1.335033e-10,	4478.19,	8.874215e-10,	4478.41,	3.827692e-09
,	,	,	,	4501.11,	3.669826e-08,	4501.41,	1.98857e-11,	4501.34,	2.211124e-12,	4501.04,	2.06598e-09,	4501.19,	1.323076e-10,	4501.26,	8.865388e-10,	4501.48,	3.835421e-09
,	,	,	,	4524.18,	3.703218e-08,	4524.48,	1.92727e-11,	4524.4,	2.343864e-12,	4524.11,	2.100633e-09,	4524.26,	1.318317e-10,	4524.33,	5.260452e-10,	4524.55,	3.772453e-09
,	,	,	,	4547.25,	3.718645e-08,	4547.55,	1.848556e-11,	4547.47,	2.230736e-12,	4547.17,	2.133974e-09,	4547.32,	1.327319e-10,	4547.4,	3.235934e-10,	4547.62,	3.813779e-09
,	,	,	,	4570.32,	3.82478e-08,	4570.62,	1.837436e-11,	4570.54,	2.293361e-12,	4570.24,	2.148964e-09,	4570.39,	1.320899e-10,	4570.47,	2.885092e-10,	4570.69,	3.858458e-09
,	,	,	,	4593.39,	3.725277e-08,	4593.69,	1.808806e-11,	4593.61,	2.817984e-12,	4593.31,	2.160144e-09,	4593.46,	1.309027e-10,	4593.54,	2.733502e-10,	4593.76,	3.780709e-09
,	,	,	,	4616.46,	3.75675e-08,	4616.76,	1.805197e-11,	4616.68,	2.463968e-12,	4616.38,	2.16004e-09,	4616.53,	1.30143e-10,	4616.61,	2.636233e-10,	4616.83,	3.821408e-09
,	,	,	,	4639.53,	3.7432e-08,	4639.83,	1.803506e-11,	4639.75,	2.306102e-12,	4639.45,	2.173518e-09,	4639.6,	1.2944e-10,	4639.68,	2.609688e-10,	4639.9,	3.812903e-09
,	,	,	,	4662.6,	3.761864e-08,	4662.89,	1.844056e-11,	4662.82,	2.365649e-12,	4662.52,	2.170541e-09,	4662.67,	1.311108e-10,	4662.74,	2.557805e-10,	4662.97,	3.777355e-09
,	,	,	,	4685.66,	3.725524e-08,	4685.96,	1.716438e-11,	4685.89,	2.250056e-12,	4685.59,	2.162032e-09,	4685.74,	1.308058e-10,	4685.81,	2.527431e-10,	4686.04,	3.817345e-09
,	,	,	,	4708.73,	3.801143e-08,	4709.03,	1.818669e-11,	4708.96,	2.369452e-12,	4708.66,	2.164301e-09,	4708.81,	1.276042e-10,	4708.88,	2.525493e-10,	4709.11,	3.760915e-09
,	,	,	,	4731.8,	3.732415e-08,	4732.1,	1.798668e-11,	4732.03,	2.524017e-12,	4731.73,	2.175094e-09,	4731.88,	1.303789e-10,	4731.95,	2.533577e-10,	4732.18,	3.81372e-09
,	,	,	,	4754.87,	3.759574e-08,	4755.17,	1.786882e-11,	4755.1,	2.167868e-12,	4754.8,	2.176401e-09,	4754.95,	1.336229e-10,	4755.02,	2.502045e-10,	4755.24,	3.817836e-09
,	,	,	,	4777.94,	3.711142e-08,	4778.24,	1.793628e-11,	4778.16,	2.32764e-12,	4777.87,	2.194401e-09,	4778.02,	1.280768e-10,	4778.09,	2.505031e-10,	4778.31,	3.819959e-09
,	,	,	,	4801.01,	3.733257e-08,	4801.31,	1.767311e-11,	4801.23,	2.341865e-12,	4800.94,	2.190149e-09,	4801.09,	1.306447e-10,	4801.16,	2.489892e-10,	4801.38,	3.779274e-09
,	,	,	,	4824.08,	3.711014e-08,	4824.38,	1.759985e-11,	4824.3,	4.242469e-12,	4824,	2.192518e-09,	4824.15,	2.845726e-10,	4824.23,	2.775558e-10,	4824.45,	3.775288e-09
,	,	,	,	4847.15,	3.814972e-08,	4847.45,	1.767573e-11,	4847.37,	2.271948e-12,	4847.07,	2.200788e-09,	4847.22,	1.28531e-10,	4847.3,	2.474273e-10,	4847.52,	3.792661e-09
,	,	,	,	4870.22,	3.813871e-08,	4870.52,	1.76721e-11,	4870.44,	2.260639e-12,	4870.14,	2.186228e-09,	4870.29,	1.311911e-10,	4870.37,	2.443994e-10,	4870.59,	3.790475e-09
,	,	,	,	4893.29,	3.831335e-08,	4893.59,	1.806935e-11,	4893.51,	2.488412e-12,	4893.21,	2.205481e-09,	4893.36,	1.433794e-10,	4893.44,	2.479777e-10,	4893.66,	3.765517e-09
,	,	,	,	4916.36,	3.78804e-08,	4916.65,	1.80146e-11,	4916.58,	2.152172e-12,	4916.28,	2.194486e-09,	4916.43,	1.286311e-10,	4916.51,	2.44422e-10,	4916.73,	3.781132e-09
,	,	,	,	4939.42,	3.711144e-08,	4939.72,	1.758763e-11,	4939.65,	2.442935e-12,	4939.35,	2.191112e-09,	4939.5,	1.293824e-10,	4939.57,	2.450592e-10,	4939.8,	3.764037e-09
,	,	,	,	4962.49,	3.753298e-08,	4962.79,	1.712636e-11,	4962.72,	2.325975e-12,	4962.42,	2.196497e-09,	4962.57,	1.318366e-10,	4962.64,	2.467435e-10,	4962.87,	3.822509e-09
,	,	,	,	4985.56,	3.726857e-08,	4985.86,	1.802426e-11,	4985.79,	2.428363e-12,	4985.49,	2.212739e-09,	4985.64,	1.316629e-10,	4985.71,	2.431048e-10,	4985.94,	3.796262e-09
,	,	,	,	5008.63,	3.71369e-08,	5008.93,	1.793143e-11,	5008.86,	2.494989e-12,	5008.56,	2.208064e-09,	5008.71,	1.305812e-10,	5008.78,	2.466362e-10,	5009.01,	3.775319e-09
,	,	,	,	5031.7,	3.720225e-08,	5032.0,	1.742405e-11,	5031.93,	2.217055e-12,	5031.63,	2.210716e-09,	5031.78,	1.278526e-10,	5031.85,	2.456148e-10,	5032.08,	3.783426e-09
,	,	,	,	5054.77,	3.736205e-08,	5055.07,	1.754884e-11,	5054.99,	2.356776e-12,	5054.7,	2.218677e-09,	5054.85,	1.314328e-10,	5054.92,	2.413927e-10,	5055.14,	3.7722e-09
,	,	,	,	5077.84,	3.717986e-08,	5078.14,	1.742982e-11,	5078.06,	2.159887e-12,	5077.77,	2.19639e-09,	5077.91,	1.303284e-10,	5077.99,	2.4233e-10,	5078.21,	3.748257e-09
,	,	,	,	5100.91,	3.668448e-08,	5101.21,	1.756633e-11,	5101.13,	2.121827e-12,	5100.83,	2.209229e-09,	5100.98,	1.281371e-10,	5101.06,	2.404791e-10,	5101.28,	3.741738e-09
,	,	,	,	5123.98,	3.719807e-08,	5124.28,	1.719582e-11,	5124.2,	2.240604e-12,	5123.9,	2.205402e-09,	5124.05,	1.280279e-10,	5124.13,	2.424173e-10,	5124.35,	3.776983e-09
,	,	,	,	5147.05,	3.711099e-08,	5147.35,	1.670624e-11,	5147.27,	2.190805e-12,	5146.97,	2.211301e-09,	5147.12,	1.287634e-10,	5147.2,	2.401267e-10,	5147.42,	3.751152e-09
,	,	,	,	5170.12,	3.786588e-08,	5170.41,	1.811317e-11,	5170.34,	2.61916e-12,	5170.04,	2.210619e-09,	5170.19,	1.316258e-10,	5170.27,	2.40853e-10,	5170.49,	3.73086e-09
,	,	,	,	5193.19,	3.700108e-08,	5193.48,	1.734818e-11,	5193.41,	2.283011e-12,	5193.11,	2.211165e-09,	5193.26,	1.287481e-10,	5193.34,	2.41248e-10,	5193.56,	3.768337e-09
,	,	,	,	5216.25,	3.74526e-08,	5216.55,	1.706748e-11,	5216.48,	2.760452e-12,	5216.18,	2.216923e-09,	5216.33,	1.303725e-10,	5216.4,	2.408792e-10,	5216.63,	3.788851e-09
,	,	,	,	5239.33,	3.710688e-08,	5239.62,	1.783839e-11,	5239.55,	2.289963e-12,	5239.25,	2.228459e-09,	5239.4,	1.290455e-10,	5239.47,	2.406771e-10,	5239.7,	3.801868e-09
,	,	,	,	5262.39,	3.715449e-08,	5262.69,	1.724463e-11,	5262.62,	2.432429e-12,	5262.32,	2.225148e-09,	5262.47,	1.330076e-10,	5262.54,	2.404509e-10,	5262.77,	3.75422e-09
,	,	,	,	5285.46,	3.736775e-08,	5285.76,	1.776929e-11,	5285.69,	2.648137e-12,	5285.39,	2.228215e-09,	5285.54,	1.316599e-10,	5285.61,	2.395931e-10,	5285.84,	3.74018e-09
,	,	,	,	5308.53,	9.286187e-09,	5308.83,	4.817204e-11,	5308.76,	8.606496e-10,	5308.46,	1.938703e-09,	5308.61,	5.33891e-08,	5308.68,	8.608768e-09,	5308.9,	3.87399e-09
,	,	,	,	5331.6,	1.00463e-09,	5331.9,	5.765649e-11,	5331.83,	2.355956e-08,	5331.53,	1.687613e-09,	5331.68,	5.685615e-08,	5331.75,	1.046438e-08,	5331.97,	3.617786e-09
,	,	,	,	5354.67,	3.25501e-10,	5354.97,	3.323124e-11,	5354.89,	5.758363e-08,	5354.6,	1.663203e-09,	5354.74,	6.052117e-09,	5354.82,	1.491214e-09,	5355.04,	3.138603e-09
,	,	,	,	5377.74,	2.120661e-10,	5378.04,	2.896162e-11,	5377.96,	5.947908e-08,	5377.66,	1.665705e-09,	5377.81,	3.440366e-09,	5377.89,	9.413157e-10,	5378.11,	3.055154e-09
,	,	,	,	5400.81,	1.546291e-10,	5401.11,	2.656494e-11,	5401.03,	6.025764e-08,	5400.73,	1.638635e-09,	5400.88,	2.712771e-09,	5400.96,	7.7838e-10,	5401.18,	3.002946e-09
,	,	,	,	5423.88,	1.201046e-10,	5424.17,	2.4935e-11,	5424.1,	6.079965e-08,	5423.8,	1.642948e-09,	5423.95,	2.193456e-09,	5424.03,	6.676556e-10,	5424.25,	3.025886e-09
,	,	,	,	5446.95,	1.004083e-10,	5447.25,	2.393785e-11,	5447.17,	6.174906e-08,	5446.87,	1.646383e-09,	5447.02,	1.817408e-09,	5447.1,	5.914576e-10,	5447.32,	3.003507e-09
,	,	,	,	5470.02,	6.994996e-09,	5470.32,	2.483106e-11,	5470.24,	4.680108e-08,	5469.94,	1.695543e-09,	5470.09,	1.232348e-09,	5470.17,	4.928181e-10,	5470.39,	3.072923e-09
,	,	,	,	5493.09,	2.959809e-08,	5493.38,	2.279761e-11,	5493.31,	9.002306e-09,	5493.01,	2.04233e-09,	5493.16,	3.682027e-10,	5493.23,	3.25256e-10,	5493.46,	3.623537e-09
,	,	,	,	5516.15,	3.48354e-08,	5516.45,	2.155964e-11,	5516.38,	6.683309e-09,	5516.08,	2.161225e-09,	5516.23,	2.73587e-10,	5516.3,	2.996373e-10,	5516.53,	3.761861e-09
,	,	,	,	5539.22,	3.456499e-08,	5539.52,	2.103806e-11,	5539.45,	4.61074e-09,	5539.15,	2.167708e-09,	5539.3,	2.41462e-10,	5539.37,	2.902022e-10,	5539.6,	3.822789e-09
,	,	,	,	5562.29,	3.505505e-08,	5562.59,	2.047518e-11,	5562.52,	3.732804e-09,	5562.22,	2.172001e-09,	5562.37,	2.2074e-10,	5562.44,	2.848707e-10,	5562.67,	3.88064e-09
,	,	,	,	5585.36,	3.554458e-08,	5585.66,	2.043772e-11,	5585.59,	3.090871e-09,	5585.29,	2.215739e-09,	5585.44,	2.06806e-10,	5585.51,	2.815254e-10,	5585.73,	3.8031e-09
,	,	,	,	5608.43,	3.578719e-08,	5608.73,	1.913188e-11,	5608.65,	2.55596e-09,	5608.36,	2.112254e-09,	5608.51,	1.910006e-10,	5608.58,	2.754909e-10,	5608.8,	3.855025e-09
,	,	,	,	5631.5,	3.714916e-08,	5631.8,	1.94117e-11,	5631.72,	2.090888e-09,	5631.42,	2.193063e-09,	5631.57,	1.812807e-10,	5631.65,	2.736868e-10,	5631.87,	3.862356e-09
,	,	,	,	5654.57,	3.635282e-08,	5654.87,	1.902855e-11,	5654.79,	1.75572e-09,	5654.49,	2.247655e-09,	5654.64,	1.725777e-10,	5654.72,	2.673357e-10,	5654.94,	3.838366e-09
,	,	,	,	5677.64,	3.65531e-08,	5677.94,	1.874067e-11,	5677.86,	1.445217e-09,	5677.56,	2.294596e-09,	5677.71,	1.85789e-10,	5677.79,	2.674334e-10,	5678.01,	3.814248e-09
,	,	,	,	5700.71,	3.754945e-08,	5701.01,	1.935449e-11,	5700.93,	1.205526e-09,	5700.63,	2.341554e-09,	5700.78,	1.623793e-10,	5700.86,	2.638205e-10,	5701.08,	3.830097e-09
,	,	,	,	5723.78,	3.695942e-08,	5724.08,	1.825368e-11,	5724,	9.995236e-10,	5723.7,	2.367921e-09,	5723.85,	1.559478e-10,	5723.93,	2.598059e-10,	5724.15,	3.828857e-09
,	,	,	,	5746.85,	7.709057e-09,	5747.14,	2.124252e-11,	5747.07,	4.639699e-08,	5746.77,	2.011178e-09,	5746.92,	3.557566e-10,	5746.99,	3.7078e-10,	5747.22,	3.332663e-09
,	,	,	,	5769.91,	8.379935e-10,	5770.21,	2.165342e-11,	5770.14,	5.959915e-08,	5769.84,	1.913045e-09,	5769.99,	4.060084e-10,	5770.06,	3.840699e-10,	5770.29,	3.010335e-09
,	,	,	,	5792.98,	4.38019e-10,	5793.28,	2.205831e-11,	5793.21,	6.144361e-08,	5792.91,	1.940886e-09,	5793.06,	3.881731e-10,	5793.13,	3.714034e-10,	5793.36,	3.016461e-09
,	,	,	,	5816.05,	2.779087e-10,	5816.35,	2.22362e-11,	5816.28,	6.180373e-08,	5815.98,	1.95255e-09,	5816.13,	3.764289e-10,	5816.2,	3.696358e-10,	5816.43,	3.003197e-09
,	,	,	,	5839.12,	1.955431e-10,	5839.42,	2.230425e-11,	5839.35,	6.14654e-08,	5839.05,	1.971043e-09,	5839.2,	3.620725e-10,	5839.27,	3.563616e-10,	5839.49,	2.934457e-09
,	,	,	,	5862.19,	1.516421e-10,	5862.49,	2.190383e-11,	5862.41,	6.250951e-08,	5862.12,	2.008448e-09,	5862.27,	3.482238e-10,	5862.34,	3.541635e-10,	5862.56,	2.979567e-09
,	,	,	,	5885.26,	1.258966e-10,	5885.56,	2.189901e-11,	5885.48,	6.23604e-08,	5885.19,	2.02164e-09,	5885.34,	3.320132e-10,	5885.41,	3.423191e-10,	5885.63,	2.956341e-09
,	,	,	,	5908.33,	1.079996e-10,	5908.63,	2.165211e-11,	5908.55,	6.301516e-08,	5908.26,	2.057411e-09,	5908.4,	3.228506e-10,	5908.48,	3.357799e-10,	5908.7,	2.953331e-09
,	,	,	,	5931.4,	9.852374e-11,	5931.7,	2.180566e-11,	5931.62,	6.273147e-08,	5931.33,	2.063773e-09,	5931.47,	3.131019e-10,	5931.55,	3.298805e-10,	5931.77,	2.987342e-09
,	,	,	,	5954.47,	8.841147e-11,	5954.77,	2.11719e-11,	5954.69,	6.240039e-08,	5954.39,	2.084471e-09,	5954.54,	3.038404e-10,	5954.62,	3.245314e-10,	5954.84,	2.953782e-09
,	,	,	,	5977.54,	8.421026e-11,	5977.84,	2.165495e-11,	5977.76,	6.325894e-08,	5977.46,	2.127895e-09,	5977.61,	2.94577e-10,	5977.69,	3.205432e-10,	5977.91,	2.97256e-09
,	,	,	,	6000.61,	8.025632e-11,	6000.9,	2.186949e-11,	6000.83,	6.235308e-08,	6000.53,	2.139179e-09,	6000.68,	2.806321e-10,	6000.76,	3.161538e-10,	6000.98,	2.940854e-09
,	,	,	,	6023.67,	3.426799e-08,	6023.97,	2.141636e-11,	6023.9,	8.083089e-09,	6023.6,	2.691357e-09,	6023.75,	1.68587e-10,	6023.82,	2.628434e-10,	6024.05,	3.585847e-09
,	,	,	,	6046.74,	3.82479e-08,	6047.04,	1.941084e-11,	6046.97,	1.206384e-09,	6046.67,	2.781459e-09,	6046.82,	1.416332e-10,	6046.89,	2.513344e-10,	6047.12,	3.825072e-09
,	,	,	,	6069.81,	3.758188e-08,	6070.11,	1.869171e-11,	6070.04,	5.068249e-10,	6069.74,	2.711711e-09,	6069.89,	1.373937e-10,	6069.96,	2.509762e-10,	6070.19,	3.783035e-09
,	,	,	,	6092.88,	3.744068e-08,	6093.18,	1.853083e-11,	6093.11,	3.2193e-10,	6092.81,	2.158437e-09,	6092.96,	1.373134e-10,	6093.03,	2.507768e-10,	6093.26,	3.81009e-09
,	,	,	,	6115.95,	3.776831e-08,	6116.25,	1.825423e-11,	6116.18,	2.401081e-10,	6115.88,	2.178534e-09,	6116.03,	1.370984e-10,	6116.1,	2.513861e-10,	6116.33,	3.789229e-09
,	,	,	,	6139.02,	3.756114e-08,	6139.32,	1.800462e-11,	6139.24,	1.896336e-10,	6138.95,	2.171431e-09,	6139.1,	1.373914e-10,	6139.17,	2.510209e-10,	6139.39,	3.793065e-09
,	,	,	,	6162.09,	3.744974e-08,	6162.39,	1.818573e-11,	6162.32,	1.558538e-10,	6162.02,	2.185632e-09,	6162.17,	1.365769e-10,	6162.24,	2.481005e-10,	6162.46,	3.87134e-09
,	,	,	,	6166.59,	3.803687e-08,	6166.89,	1.781348e-11,	6166.82,	1.510799e-10,	6166.52,	2.187643e-09,	6166.67,	1.355372e-10,	6166.74,	2.475061e-10,	6166.96,	3.813561e-09