File: Quantification/development/OER_repeatability_single_day/OERonPt_RnD1_2.csv
ixdat version = 0.2.3
name = 2022-04-27 13_48_01 OER_repetition_2 AND 2022-04-27 13_48_01 OER_repetition_2_01_01_CVA_DUSB0_C01.mpt AND 2022-04-27 13_48_01 OER_repetition_2_01_02_CP_DUSB0_C01.mpt
technique = EC-MS
tstamp = 1651060081.0
backend_name = BackendBase(none, address=none)
id = 35
timecol 'time/s' for: 'Ewe/V' and 'raw_current' and 'selector'
timecol 'C1M4 time [s]' for: 'M4'
timecol 'C5M44 time [s]' for: 'M44'
timecol 'C4M40 time [s]' for: 'M40'
timecol 'C0M2 time [s]' for: 'M2'
timecol 'C2M28 time [s]' for: 'M28'
timecol 'C3M32 time [s]' for: 'M32'
timecol 'C6M18 time [s]' for: 'M18'
aliases = {"M2": ["M2 [A]"], "M4": ["M4 [A]"], "M28": ["M28 [A]"], "M32": ["M32 [A]"], "M40": ["M40 [A]"], "M44": ["M44 [A]"], "M18": ["M18 [A]"], "t": ["time/s"], "raw_potential": ["Ewe/V"], "raw_current": ["I/mA", "<I>/mA"], "cycle": ["cycle number"]}
N_header_lines = 18

time/s,	Ewe/V,	raw_current,	selector,	C1M4 time [s],	M4,	C5M44 time [s],	M44,	C4M40 time [s],	M40,	C0M2 time [s],	M2,	C2M28 time [s],	M28,	C3M32 time [s],	M32,	C6M18 time [s],	M18
1136.0,	1.12862,	-2.07418e-05,	0,	0.600189,	9.840486e-12,	0.898379,	7.848664e-11,	0.824332,	8.11942e-10,	0.526142,	1.74253e-09,	0.675237,	7.747616e-08,	0.749284,	2.004246e-08,	0.973426,	8.243885e-09
1154.27,	1.29369,	0.000338351,	0,	21.9819,	7.878323e-12,	22.2799,	7.868268e-11,	22.2059,	8.355689e-10,	21.9079,	1.691601e-09,	22.0569,	7.980454e-08,	22.1309,	2.093886e-08,	22.3549,	6.071928e-09
1165.66,	1.5216,	0.00116999,	0,	43.3638,	7.304372e-12,	43.6618,	7.872349e-11,	43.5868,	8.287844e-10,	43.2888,	1.629504e-09,	43.4378,	7.938252e-08,	43.5128,	2.09369e-08,	43.7358,	4.584273e-09
1176.56,	1.66131,	0.00649813,	0,	64.7435,	3.405524e-10,	65.0415,	8.687497e-11,	64.9675,	8.227528e-10,	64.6695,	1.58845e-09,	64.8185,	7.743618e-08,	64.8925,	2.056543e-08,	65.1165,	3.879589e-09
1187.95,	1.43338,	-0.000284401,	0,	86.1255,	4.628416e-10,	86.4235,	8.183873e-11,	86.3485,	8.226942e-10,	86.0505,	1.544209e-09,	86.1995,	7.708692e-08,	86.2745,	2.037264e-08,	86.4975,	3.416288e-09
1199.35,	1.20553,	-0.000421989,	0,	107.506,	2.81062e-08,	107.804,	7.66291e-11,	107.73,	2.883686e-10,	107.432,	1.904043e-09,	107.581,	1.183146e-08,	107.655,	4.724572e-09,	107.879,	5.109813e-09
1210.74,	0.977633,	-0.00148818,	0,	128.888,	3.105882e-08,	129.186,	6.260125e-11,	129.112,	1.453432e-10,	128.814,	1.876209e-09,	128.963,	7.890586e-09,	129.037,	2.24008e-09,	129.261,	5.250414e-09
1222.13,	0.749706,	-0.0124814,	0,	150.269,	3.31031e-08,	150.567,	4.913921e-11,	150.492,	7.192114e-11,	150.194,	1.920765e-09,	150.343,	3.309987e-09,	150.418,	1.169639e-09,	150.641,	5.222149e-09
1233.53,	0.521828,	-0.00103771,	0,	171.65,	3.111452e-08,	171.948,	6.352297e-11,	171.874,	1.095577e-10,	171.576,	1.85996e-09,	171.725,	6.8301e-09,	171.799,	2.530069e-09,	172.023,	5.012543e-09
1244.92,	0.2938984,	-0.00395708,	0,	193.031,	3.261108e-08,	193.329,	5.058572e-11,	193.254,	9.36197e-11,	192.956,	1.918661e-09,	193.105,	7.318163e-09,	193.18,	2.206615e-09,	193.403,	4.983002e-09
1256.32,	0.0659767,	-0.0146138,	0,	214.412,	3.069997e-08,	214.71,	4.221293e-11,	214.636,	7.630099e-11,	214.338,	1.852211e-09,	214.487,	8.39593e-09,	214.561,	1.995461e-09,	214.785,	4.88606e-09
1267.09,	0.170478,	0.00634484,	0,	235.793,	3.376475e-08,	236.091,	3.302749e-11,	236.017,	1.471667e-11,	235.72,	1.861393e-09,	235.868,	1.115147e-09,	235.942,	5.616185e-10,	236.166,	4.578623e-09
1278.48,	0.398289,	0.000739889,	0,	257.176,	3.406004e-08,	257.474,	3.018784e-11,	257.399,	1.121e-11,	257.101,	1.842627e-09,	257.25,	7.347309e-10,	257.325,	4.856384e-10,	257.548,	4.52907e-09
1289.88,	0.626203,	0.000950021,	0,	278.556,	3.414467e-08,	278.854,	2.831969e-11,	278.78,	1.031877e-11,	278.482,	1.83397e-09,	278.631,	6.584588e-10,	278.705,	4.667562e-10,	278.929,	4.480603e-09
1301.27,	0.854069,	0.0038137,	0,	299.936,	3.390927e-08,	300.234,	2.648936e-11,	300.159,	1.17097e-11,	299.861,	1.849712e-09,	300.01,	8.693083e-10,	300.085,	4.90008e-10,	300.308,	4.335521e-09
1312.66,	1.08196,	0.00685185,	0,	321.318,	3.291925e-08,	321.616,	2.765543e-11,	321.542,	3.597877e-11,	321.244,	1.901647e-09,	321.393,	4.300498e-09,	321.467,	1.045609e-09,	321.691,	4.493041e-09
1323.56,	1.29997,	0.00878966,	1,	342.7,	3.390567e-08,	342.998,	2.432807e-11,	342.924,	1.353956e-11,	342.626,	1.88444e-09,	342.775,	1.264971e-09,	342.849,	5.395305e-10,	343.073,	4.305487e-09
1334.96,	1.52791,	0.0124562,	1,	364.081,	3.233444e-08,	364.379,	2.64377e-11,	364.304,	4.721082e-11,	364.006,	1.873557e-09,	364.155,	6.57294e-09,	364.23,	1.326833e-09,	364.453,	4.428197e-09
1345.84,	1.65533,	0.0256221,	1,	385.461,	3.308313e-08,	385.759,	2.52456e-11,	385.685,	3.157277e-11,	385.387,	1.92358e-09,	385.536,	3.896069e-09,	385.61,	9.467258e-10,	385.834,	4.435186e-09
1357.23,	1.4274,	-0.000218888,	1,	406.843,	3.419065e-08,	407.141,	2.28516e-11,	407.066,	7.363887e-12,	406.768,	1.89495e-09,	406.917,	4.312009e-10,	406.992,	3.833303e-10,	407.215,	4.17995e-09
1368.63,	1.19953,	-0.00071203,	1,	428.223,	3.406653e-08,	428.521,	2.35988e-11,	428.447,	9.072299e-12,	428.149,	1.882108e-09,	428.298,	6.566131e-10,	428.372,	4.250069e-10,	428.596,	4.10789e-09
1380.02,	0.971631,	-0.00240065,	1,	449.606,	3.426932e-08,	449.904,	2.333628e-11,	449.83,	8.179022e-12,	449.532,	1.898258e-09,	449.681,	5.182416e-10,	449.755,	3.970384e-10,	449.979,	4.13001e-09
1391.42,	0.743746,	-0.0345418,	1,	470.986,	2.975119e-08,	471.283,	7.907554e-11,	471.208,	4.765202e-10,	470.911,	1.902832e-09,	471.059,	1.746565e-08,	471.135,	8.359939e-09,	471.358,	4.26721e-09
1402.81,	0.5158115,	-0.00109891,	1,	492.368,	2.564323e-11,	492.665,	8.045271e-11,	492.591,	8.208865e-10,	492.293,	1.613841e-09,	492.443,	7.801826e-08,	492.516,	2.055022e-08,	492.74,	3.615272e-09
1414.2,	0.287884,	-0.00472753,	1,	513.749,	2.406159e-11,	514.047,	7.64935e-11,	513.972,	8.384571e-10,	513.674,	1.53048e-09,	513.823,	7.844763e-08,	513.898,	2.012871e-08,	514.121,	2.796245e-09
1425.6,	0.0599869,	-0.0136795,	1,	535.13,	2.565957e-11,	535.428,	7.239907e-11,	535.354,	8.277118e-10,	535.056,	1.50218e-09,	535.205,	7.816013e-08,	535.279,	2.063402e-08,	535.503,	2.564708e-09
1436.37,	0.176464,	0.00612138,	1,	556.51,	2.529466e-11,	556.809,	7.257065e-11,	556.734,	8.273035e-10,	556.437,	1.498753e-09,	556.586,	7.814914e-08,	556.659,	2.041821e-08,	556.884,	2.562862e-09
1447.76,	0.40427,	0.000643351,	1,	577.892,	2.405855e-11,	578.19,	8.922445e-11,	578.115,	8.237775e-10,	577.817,	1.466547e-09,	577.966,	7.848023e-08,	578.041,	2.029543e-08,	578.264,	2.183558e-09
1459.16,	0.632187,	0.000848207,	1,	599.273,	2.328861e-11,	599.571,	7.281192e-11,	599.497,	8.196662e-10,	599.199,	1.421894e-09,	599.348,	7.858941e-08,	599.422,	2.082193e-08,	599.646,	1.709828e-09
1470.55,	0.860091,	0.00446787,	1,	620.655,	3.909839e-10,	620.954,	7.527306e-11,	620.878,	8.058055e-10,	620.58,	1.408379e-09,	620.73,	7.705047e-08,	620.805,	1.998905e-08,	621.027,	1.622407e-09
1481.95,	1.087949,	0.0062859,	1,	642.036,	6.557692e-10,	642.334,	8.494336e-11,	642.26,	8.030842e-10,	641.962,	1.428135e-09,	642.111,	7.670493e-08,	642.185,	1.99289e-08,	642.409,	1.914612e-09
1492.85,	1.30595,	0.0077378,	2,	663.416,	1.913496e-08,	663.714,	7.372301e-11,	663.64,	3.535927e-10,	663.342,	1.57958e-09,	663.491,	3.269061e-08,	663.565,	8.389341e-09,	663.789,	2.377998e-09
1504.24,	1.53391,	0.0120772,	2,	684.798,	3.422068e-08,	685.096,	5.723743e-11,	685.021,	5.075137e-11,	684.723,	1.796599e-09,	684.872,	2.602097e-09,	684.947,	1.306282e-09,	685.17,	3.610935e-09
1515.12,	1.64931,	0.0223632,	2,	706.179,	3.297916e-08,	706.477,	4.199668e-11,	706.403,	1.756408e-11,	706.105,	1.735044e-09,	706.254,	9.210597e-10,	706.328,	5.974033e-10,	706.552,	3.668283e-09
1526.51,	1.42139,	-0.000286595,	2,	727.561,	3.333007e-08,	727.859,	3.53888e-11,	727.784,	1.240289e-11,	727.486,	1.750884e-09,	727.635,	7.755902e-10,	727.71,	5.098736e-10,	727.933,	3.727151e-09
1537.91,	1.1935,	-0.000758588,	2,	748.942,	3.473366e-08,	749.24,	3.062636e-11,	749.166,	9.984853e-12,	748.868,	1.755463e-09,	749.017,	5.711059e-10,	749.091,	4.409111e-10,	749.315,	3.792323e-09
1549.3,	0.965625,	-0.0025391,	2,	770.322,	2.975443e-08,	770.62,	6.391713e-11,	770.546,	1.34862e-10,	770.248,	1.762411e-09,	770.397,	7.979089e-09,	770.471,	3.094481e-09,	770.695,	3.88913e-09
1560.7,	0.737732,	-0.0393195,	2,	791.704,	5.832827e-09,	792.003,	7.140779e-11,	791.928,	6.452625e-10,	791.629,	1.636645e-09,	791.779,	6.195656e-08,	791.853,	1.524404e-08,	792.076,	3.645401e-09
1572.09,	0.509831,	-0.00109198,	2,	813.085,	7.992658e-12,	813.383,	7.256058e-11,	813.309,	8.153052e-10,	813.011,	1.479316e-09,	813.16,	7.80182e-08,	813.234,	2.027977e-08,	813.458,	2.374442e-09
1583.48,	0.281887,	-0.00504476,	2,	834.467,	7.579964e-12,	834.765,	7.018024e-11,	834.69,	8.15889e-10,	834.392,	1.452584e-09,	834.541,	7.786541e-08,	834.616,	2.007835e-08,	834.839,	2.183779e-09
1594.88,	0.0539867,	-0.0144849,	2,	855.847,	8.856194e-12,	856.145,	7.009451e-11,	856.071,	8.137277e-10,	855.773,	1.432507e-09,	855.922,	7.807643e-08,	855.996,	2.00987e-08,	856.22,	2.089952e-09
1605.65,	0.1824728,	0.00589923,	2,	877.229,	7.400678e-12,	877.527,	7.117439e-11,	877.453,	8.164319e-10,	877.155,	1.425684e-09,	877.304,	7.838214e-08,	877.378,	2.058203e-08,	877.602,	1.852112e-09
1617.04,	0.410295,	0.000634149,	2,	898.61,	7.750679e-12,	898.908,	7.613534e-11,	898.833,	8.147865e-10,	898.535,	1.420647e-09,	898.684,	7.836751e-08,	898.759,	2.0286e-08,	898.982,	1.997144e-09
1628.44,	0.638178,	0.00087038,	2,	919.99,	7.585184e-12,	920.288,	7.174169e-11,	920.214,	8.035744e-10,	919.916,	1.373762e-09,	920.065,	7.766903e-08,	920.139,	2.038959e-08,	920.363,	1.443981e-09
1639.83,	0.866115,	0.00515418,	2,	941.373,	2.194428e-10,	941.671,	7.131037e-11,	941.596,	7.999448e-10,	941.298,	1.362492e-09,	941.447,	7.590825e-08,	941.522,	2.013964e-08,	941.745,	1.350355e-09
1651.23,	1.09399,	0.0061012,	2,	962.753,	5.540333e-10,	963.051,	8.267375e-11,	962.977,	7.946446e-10,	962.679,	1.368743e-09,	962.828,	7.474407e-08,	962.902,	1.949607e-08,	963.126,	1.487899e-09
1662.13,	1.31194,	0.00718706,	3,	984.135,	2.357669e-08,	984.433,	7.129667e-11,	984.359,	2.742565e-10,	984.061,	1.571524e-09,	984.21,	2.06921e-08,	984.284,	6.808508e-09,	984.508,	2.081181e-09
1673.52,	1.53991,	0.0125018,	3,	1005.52,	3.109586e-08,	1005.81,	6.017826e-11,	1005.74,	7.926469e-11,	1005.44,	1.715595e-09,	1005.59,	4.069054e-09,	1005.66,	1.871714e-09,	1005.89,	3.311835e-09
1684.4,	1.64332,	0.0189464,	3,	1026.9,	3.280759e-08,	1027.19,	3.788707e-11,	1027.12,	1.294963e-11,	1026.82,	1.699817e-09,	1026.97,	6.40787e-10,	1027.05,	4.810305e-10,	1027.27,	3.501802e-09
1695.8,	1.41539,	-0.000325151,	3,	1048.28,	3.289737e-08,	1048.58,	2.879948e-11,	1048.5,	9.670797e-12,	1048.2,	1.707874e-09,	1048.35,	4.688772e-10,	1048.43,	4.078342e-10,	1048.65,	3.605491e-09
1707.19,	1.18749,	-0.000794938,	3,	1069.66,	3.27413e-08,	1069.96,	2.535805e-11,	1069.88,	8.677411e-12,	1069.59,	1.708855e-09,	1069.73,	3.92896e-10,	1069.81,	3.736699e-10,	1070.03,	3.630676e-09
1718.58,	0.959635,	-0.00267092,	3,	1091.04,	3.306057e-08,	1091.34,	2.26297e-11,	1091.27,	8.067268e-12,	1090.97,	1.717914e-09,	1091.12,	3.498028e-10,	1091.19,	3.477761e-10,	1091.41,	3.676773e-09
1729.98,	0.73174,	-0.0413296,	3,	1112.42,	3.301247e-08,	1112.72,	2.235364e-11,	1112.64,	7.325019e-12,	1112.35,	1.724335e-09,	1112.5,	3.23981e-10,	1112.57,	3.386806e-10,	1112.79,	3.687935e-09
1741.37,	0.503815,	-0.00107524,	3,	1133.8,	3.301989e-08,	1134.1,	2.116458e-11,	1134.03,	7.091122e-12,	1133.73,	1.736428e-09,	1133.88,	3.01515e-10,	1133.95,	3.285663e-10,	1134.18,	3.649493e-09
1752.77,	0.275869,	-0.00495612,	3,	1155.18,	3.32645e-08,	1155.48,	2.17155e-11,	1155.41,	7.00801e-12,	1155.11,	1.760257e-09,	1155.26,	2.848626e-10,	1155.33,	3.213503e-10,	1155.56,	3.672499e-09
1764.16,	0.047985,	-0.0167234,	3,	1176.57,	3.290574e-08,	1176.86,	2.500145e-11,	1176.79,	6.634605e-12,	1176.49,	1.756889e-09,	1176.64,	2.719495e-10,	1176.71,	6.006889e-10,	1176.94,	3.686467e-09
1774.93,	0.18845,	0.00580047,	3,	1197.95,	3.310912e-08,	1198.24,	2.223562e-11,	1198.17,	6.579865e-12,	1197.87,	1.782699e-09,	1198.02,	2.610104e-10,	1198.1,	3.128195e-10,	1198.32,	3.677571e-09
1786.33,	0.416242,	0.000609737,	3,	1219.33,	3.314025e-08,	1219.63,	2.239926e-11,	1219.55,	6.61203e-12,	1219.25,	1.791997e-09,	1219.4,	2.53512e-10,	1219.48,	3.060937e-10,	1219.7,	3.672583e-09
1797.72,	0.644161,	0.000917721,	3,	1240.71,	3.312921e-08,	1241.01,	2.636293e-11,	1240.93,	6.070191e-12,	1240.63,	1.801847e-09,	1240.78,	2.420584e-10,	1240.86,	2.840662e-10,	1241.08,	3.665314e-09
1809.11,	0.872074,	0.00564997,	3,	1262.09,	3.319801e-08,	1262.39,	2.218281e-11,	1262.31,	6.176011e-12,	1262.02,	2.452616e-09,	1262.16,	2.390065e-10,	1262.24,	2.866661e-10,	1262.46,	3.684978e-09
1820.51,	1.09995,	0.00600313,	3,	1283.47,	3.302531e-08,	1283.77,	2.190322e-11,	1283.69,	6.002544e-12,	1283.4,	1.826838e-09,	1283.55,	2.287708e-10,	1283.62,	2.810241e-10,	1283.84,	3.653698e-09
1831.41,	1.31792,	0.00687018,	4,	1304.85,	3.303288e-08,	1305.15,	3.128673e-11,	1305.08,	5.943775e-12,	1304.78,	1.836665e-09,	1304.93,	2.249364e-10,	1305,	2.806626e-10,	1305.23,	3.625289e-09
1842.8,	1.54589,	0.0132717,	4,	1326.23,	3.320164e-08,	1326.53,	4.65655e-11,	1326.46,	6.166438e-12,	1326.16,	1.834418e-09,	1326.31,	2.24923e-10,	1326.38,	2.827441e-10,	1326.61,	3.652496e-09
1854,	1.63101,	0.0129152,	4,	1347.61,	3.236814e-08,	1347.91,	5.369147e-11,	1347.84,	5.537423e-12,	1347.54,	1.748703e-09,	1347.69,	2.209062e-10,	1347.76,	1.633548e-09,	1347.99,	3.658923e-09
1865.39,	1.4031,	-0.000360721,	4,	1369,	3.434066e-08,	1369.29,	3.432175e-11,	1369.22,	5.65874e-12,	1368.92,	1.818753e-09,	1369.07,	2.14151e-10,	1369.14,	3.082254e-10,	1369.37,	3.667373e-09
1876.79,	1.1752,	-0.000850559,	4,	1390.38,	3.318281e-08,	1390.67,	2.967109e-11,	1390.6,	5.525887e-12,	1390.3,	1.832188e-09,	1390.45,	2.0719e-10,	1390.53,	2.848589e-10,	1390.75,	3.650151e-09
1888.18,	0.94735,	-0.00293855,	4,	1411.76,	3.319251e-08,	1412.06,	2.725863e-11,	1411.98,	5.396037e-12,	1411.68,	1.852736e-09,	1411.83,	2.039764e-10,	1411.91,	2.730286e-10,	1412.13,	3.640637e-09
1899.57,	0.719457,	-0.037759,	4,	1433.14,	3.296816e-08,	1433.44,	2.222451e-11,	1433.36,	5.42546e-12,	1433.07,	2.039153e-09,	1433.21,	1.98172e-10,	1433.29,	2.70002e-10,	1433.51,	3.684204e-09
1910.97,	0.49155,	-0.0010418,	4,	1454.52,	3.321811e-08,	1454.82,	2.063256e-11,	1454.74,	5.478937e-12,	1454.45,	1.86299e-09,	1454.6,	1.960384e-10,	1454.67,	2.710822e-10,	1454.89,	3.667581e-09
1922.36,	0.263584,	-0.00469886,	4,	1475.9,	3.335627e-08,	1476.2,	2.813707e-11,	1476.125,	5.39198e-12,	1475.83,	1.866522e-09,	1475.98,	1.95069e-10,	1476.05,	2.671514e-10,	1476.27,	3.655605e-09
1933.76,	0.0357082,	-0.0300895,	4,	1497.28,	3.308248e-08,	1497.58,	3.675233e-11,	1497.51,	5.127528e-12,	1497.21,	1.866243e-09,	1497.36,	1.910952e-10,	1497.43,	2.693963e-10,	1497.65,	3.666396e-09
1944.51,	0.20043,	0.00566669,	4,	1518.66,	3.24281e-08,	1518.96,	3.989449e-11,	1518.89,	5.050629e-12,	1518.59,	1.74976e-09,	1518.74,	1.925076e-10,	1518.81,	1.241131e-09,	1519.04,	3.602678e-09
1955.91,	0.428261,	0.000571959,	4,	1540.05,	3.344736e-08,	1540.34,	2.767102e-11,	1540.27,	5.364831e-12,	1539.97,	1.841314e-09,	1540.12,	1.872073e-10,	1540.19,	2.94154e-10,	1540.42,	3.607e-09
1967.3,	0.656156,	0.00101063,	4,	1561.42,	3.467174e-08,	1561.72,	2.604368e-11,	1561.65,	5.099263e-12,	1561.35,	1.872514e-09,	1561.5,	1.849544e-10,	1561.57,	2.680972e-10,	1561.8,	3.623249e-09
1978.69,	0.884124,	0.0060988,	4,	1582.81,	3.348767e-08,	1583.11,	2.334299e-11,	1583.03,	5.261623e-12,	1582.73,	1.87578e-09,	1582.88,	1.850745e-10,	1582.96,	2.641416e-10,	1583.18,	3.662218e-09
2012.31,	0.874075,	1.01704e-06,	5,	1604.19,	3.365686e-08,	1604.49,	2.109997e-11,	1604.41,	5.049753e-12,	1604.11,	1.985193e-09,	1604.26,	1.817337e-10,	1604.34,	2.617203e-10,	1604.56,	3.64703e-09
2050.31,	0.882213,	1.36035e-06,	5,	1625.57,	3.355449e-08,	1625.87,	2.062485e-11,	1625.79,	5.057002e-12,	1625.5,	1.898401e-09,	1625.64,	1.780757e-10,	1625.72,	2.615694e-10,	1625.94,	3.637427e-09
2088.31,	0.891103,	9.78897e-07,	5,	1646.95,	3.356996e-08,	1647.25,	2.668411e-11,	1647.17,	5.457005e-12,	1646.88,	1.902458e-09,	1647.03,	1.786248e-10,	1647.1,	2.624651e-10,	1647.32,	3.64836e-09
2126.31,	0.89916,	7.8817e-07,	5,	1668.33,	3.342827e-08,	1668.63,	3.204243e-11,	1668.56,	5.096804e-12,	1668.26,	1.890625e-09,	1668.41,	1.777221e-10,	1668.48,	2.677025e-10,	1668.7,	3.648267e-09
2164.31,	0.906411,	1.398497e-06,	5,	1689.71,	3.300967e-08,	1690.01,	3.364471e-11,	1689.94,	5.19802e-12,	1689.64,	1.783402e-09,	1689.79,	1.788202e-10,	1689.86,	9.196445e-10,	1690.09,	3.614536e-09
2202.31,	0.911687,	1.05519e-06,	5,	1711.09,	3.323598e-08,	1711.39,	2.454214e-11,	1711.32,	4.746783e-12,	1711.02,	1.880668e-09,	1711.17,	1.748309e-10,	1711.24,	2.836342e-10,	1711.47,	3.679326e-09
2240.31,	0.916134,	1.20777e-06,	5,	1732.48,	3.347735e-08,	1732.77,	2.424705e-11,	1732.7,	4.832187e-12,	1732.4,	1.888224e-09,	1732.55,	1.732714e-10,	1732.625,	2.615457e-10,	1732.85,	3.624943e-09
2278.31,	0.919851,	2.31399e-06,	5,	1753.86,	3.348482e-08,	1754.16,	2.131603e-11,	1754.08,	4.660885e-12,	1753.78,	1.896643e-09,	1753.93,	1.731434e-10,	1754.01,	2.551771e-10,	1754.23,	3.664647e-09
2311.75,	1.21003,	0.00250172,	6,	1775.24,	3.327835e-08,	1775.54,	1.973636e-11,	1775.46,	5.13623e-12,	1775.16,	1.954309e-09,	1775.31,	1.706078e-10,	1775.39,	2.563148e-10,	1775.61,	3.652655e-09
2349.75,	1.46044,	0.00250138,	6,	1796.62,	3.355054e-08,	1796.92,	1.917782e-11,	1796.84,	4.750756e-12,	1796.55,	1.923339e-09,	1796.69,	1.69324e-10,	1796.77,	2.532181e-10,	1796.99,	3.624521e-09
2387.75,	1.53799,	0.00250183,	6,	1818.0,	3.329842e-08,	1818.3,	2.543032e-11,	1818.22,	4.602938e-12,	1817.93,	1.910738e-09,	1818.08,	1.676086e-10,	1818.15,	2.542626e-10,	1818.37,	3.62454e-09
2425.75,	1.55754,	0.00250214,	6,	1839.38,	3.354749e-08,	1839.68,	2.851433e-11,	1839.61,	4.602502e-12,	1839.31,	1.914427e-09,	1839.46,	1.674934e-10,	1839.53,	2.658367e-10,	1839.76,	3.631644e-09
2463.75,	1.56797,	0.00250218,	6,	1860.76,	3.441349e-08,	1861.06,	2.828193e-11,	1860.99,	5.097755e-12,	1860.69,	1.822645e-09,	1860.84,	1.677652e-10,	1860.91,	6.832191e-10,	1861.13,	3.629855e-09
2501.75,	1.57495,	0.00250202,	6,	1882.14,	3.341263e-08,	1882.44,	2.294032e-11,	1882.37,	4.668683e-12,	1882.07,	1.910736e-09,	1882.22,	1.656927e-10,	1882.29,	2.790916e-10,	1882.52,	3.581548e-09
2539.75,	1.58023,	0.00250221,	6,	1903.53,	3.350115e-08,	1903.82,	2.2503e-11,	1903.75,	4.333275e-12,	1903.45,	1.912969e-09,	1903.6,	1.644722e-10,	1903.67,	2.553057e-10,	1903.9,	3.586445e-09
2577.75,	1.58435,	0.00250202,	6,	1924.91,	3.35432e-08,	1925.2,	2.027399e-11,	1925.13,	4.74636e-12,	1924.83,	1.911874e-09,	1924.98,	1.626518e-10,	1925.06,	2.533312e-10,	1925.28,	3.648148e-09
2609.87,	1.432,	1.43664e-06,	7,	1946.29,	3.322825e-08,	1946.59,	1.8708e-11,	1946.51,	4.655213e-12,	1946.21,	1.959193e-09,	1946.36,	1.636574e-10,	1946.44,	2.454392e-10,	1946.66,	3.628841e-09
2647.87,	1.39071,	9.78897e-07,	7,	1967.67,	3.35384e-08,	1967.97,	2.014087e-11,	1967.89,	4.303759e-12,	1967.59,	1.934376e-09,	1967.74,	1.612184e-10,	1967.82,	2.472646e-10,	1968.04,	3.570066e-09
2685.87,	1.36135,	1.32221e-06,	7,	1989.05,	3.3524e-08,	1989.35,	2.115059e-11,	1989.27,	4.248271e-12,	1988.97,	1.933301e-09,	1989.12,	1.655022e-10,	1989.2,	2.506542e-10,	1989.42,	3.582681e-09
2723.87,	1.33776,	1.28406e-06,	7,	2010.43,	3.353998e-08,	2010.73,	2.019371e-11,	2010.65,	4.449064e-12,	2010.36,	1.929968e-09,	2010.51,	1.602406e-10,	2010.58,	2.481006e-10,	2010.8,	3.620374e-09
2761.87,	1.31783,	1.32221e-06,	7,	2031.81,	3.369314e-08,	2032.11,	2.029055e-11,	2032.04,	4.315581e-12,	2031.74,	1.930328e-09,	2031.89,	1.599974e-10,	2031.96,	2.492306e-10,	2032.18,	3.654016e-09
2799.87,	1.30074,	7.50024e-07,	7,	2053.19,	3.355597e-08,	2053.49,	1.930255e-11,	2053.42,	4.402344e-12,	2053.12,	1.934457e-09,	2053.27,	1.591732e-10,	2053.34,	2.441928e-10,	2053.57,	3.617296e-09
2837.87,	1.285261,	1.74181e-06,	7,	2074.58,	3.372239e-08,	2074.87,	1.874836e-11,	2074.8,	4.264874e-12,	2074.5,	1.952125e-09,	2074.65,	1.604753e-10,	2074.72,	2.452608e-10,	2074.95,	3.6169e-09
2875.87,	1.27161,	2.04697e-06,	7,	2095.96,	3.367101e-08,	2096.25,	1.89494e-11,	2096.18,	4.349398e-12,	2095.88,	1.954066e-09,	2096.03,	1.585721e-10,	2096.11,	2.437684e-10,	2096.33,	3.609327e-09
2883.85,	1.59268,	0.00500166,	8,	2117.34,	3.365129e-08,	2117.64,	1.908552e-11,	2117.56,	4.32616e-12,	2117.26,	1.950073e-09,	2117.41,	1.587376e-10,	2117.49,	2.448724e-10,	2117.71,	3.642918e-09
2921.85,	1.61187,	0.00500082,	8,	2138.72,	3.351096e-08,	2139.02,	1.831957e-11,	2138.94,	4.35618e-12,	2138.64,	1.946037e-09,	2138.79,	1.585506e-10,	2138.87,	2.479932e-10,	2139.09,	3.604572e-09
2959.85,	1.61826,	0.00500135,	8,	2160.1,	3.369799e-08,	2160.4,	1.883668e-11,	2160.32,	4.297228e-12,	2160.03,	1.959581e-09,	2160.17,	1.607438e-10,	2160.25,	2.444693e-10,	2160.47,	3.588839e-09
2997.85,	1.62262,	0.00500242,	8,	2181.48,	3.355752e-08,	2181.78,	1.825307e-11,	2181.7,	4.634232e-12,	2181.41,	1.959491e-09,	2181.56,	1.539931e-10,	2181.63,	2.448884e-10,	2181.85,	3.620119e-09
3035.85,	1.626101,	0.005002,	8,	2202.86,	3.391577e-08,	2203.16,	1.852104e-11,	2203.09,	3.851155e-12,	2202.79,	1.956932e-09,	2202.94,	1.549597e-10,	2203.01,	2.413098e-10,	2203.23,	3.611095e-09
3073.85,	1.629058,	0.00500253,	8,	2224.24,	3.487917e-08,	2224.54,	1.782949e-11,	2224.47,	4.330043e-12,	2224.17,	1.969545e-09,	2224.32,	1.537817e-10,	2224.39,	2.42765e-10,	2224.62,	3.630216e-09
3111.85,	1.6318,	0.005001009,	8,	2245.62,	3.518472e-08,	2245.92,	1.75527e-11,	2245.85,	4.058006e-12,	2245.55,	1.962756e-09,	2245.7,	1.53257e-10,	2245.77,	2.439238e-10,	2246,	3.645889e-09
3149.85,	1.63388,	0.00500219,	8,	2267,	3.368971e-08,	2267.3,	1.793709e-11,	2267.23,	4.099682e-12,	2266.93,	1.965364e-09,	2267.08,	1.550479e-10,	2267.15,	2.454238e-10,	2267.38,	3.596207e-09
3180.65,	1.56632,	1.51293e-06,	9,	2288.39,	3.38006e-08,	2288.68,	1.851849e-11,	2288.61,	4.045801e-12,	2288.31,	1.958334e-09,	2288.46,	1.545302e-10,	2288.54,	2.402781e-10,	2288.76,	3.593158e-09
3217.81,	1.45936,	8.26315e-07,	9,	2309.77,	3.378707e-08,	2310.07,	1.99031e-11,	2309.99,	3.632306e-12,	2309.69,	1.973679e-09,	2309.84,	1.545078e-10,	2309.92,	2.449209e-10,	2310.14,	3.639166e-09
3255.81,	1.43101,	1.70366e-06,	9,	2331.15,	3.36111e-08,	2331.45,	2.101857e-11,	2331.37,	4.26103e-12,	2331.07,	1.971786e-09,	2331.22,	1.518041e-10,	2331.3,	2.458518e-10,	2331.52,	3.63777e-09
3293.81,	1.41065,	8.26315e-07,	9,	2352.53,	3.370468e-08,	2352.83,	2.121567e-11,	2352.75,	4.211126e-12,	2352.46,	1.96126e-09,	2352.61,	1.522653e-10,	2352.68,	2.581243e-10,	2352.9,	3.609315e-09
3331.81,	1.393569,	1.85624e-06,	9,	2373.91,	3.381341e-08,	2374.21,	2.094776e-11,	2374.13,	4.059448e-12,	2373.84,	1.96974e-09,	2373.99,	1.542419e-10,	2374.06,	2.907857e-10,	2374.28,	3.624002e-09
3369.81,	1.37819,	1.09333e-06,	9,	2395.29,	3.343734e-08,	2395.59,	1.951704e-11,	2395.52,	4.237517e-12,	2395.22,	1.962119e-09,	2395.37,	1.526858e-10,	2395.44,	3.015908e-10,	2395.66,	3.591931e-09
3407.81,	1.36441,	1.77995e-06,	9,	2416.67,	3.350228e-08,	2416.97,	1.932442e-11,	2416.9,	3.665099e-12,	2416.6,	1.960921e-09,	2416.75,	1.517243e-10,	2416.82,	3.052254e-10,	2417.05,	3.615868e-09
3445.81,	1.35188,	1.93253e-06,	9,	2438.06,	3.362855e-08,	2438.35,	1.902443e-11,	2438.28,	3.950414e-12,	2437.98,	1.967129e-09,	2438.13,	1.506082e-10,	2438.2,	3.087318e-10,	2438.43,	3.591622e-09
3479.66,	1.370937,	0.0100024,	10,	2459.44,	3.377275e-08,	2459.73,	1.871031e-11,	2459.66,	3.991999e-12,	2459.36,	1.969553e-09,	2459.51,	1.527259e-10,	2459.59,	3.058486e-10,	2459.81,	3.58872e-09
3492.56,	1.65186,	0.0100011,	10,	2480.82,	3.366004e-08,	2481.12,	1.817009e-11,	2481.04,	4.115202e-12,	2480.74,	1.969283e-09,	2480.89,	1.490292e-10,	2480.97,	3.055101e-10,	2481.19,	3.533398e-09
3530.56,	1.66005,	0.0100017,	10,	2502.2,	3.374789e-08,	2502.5,	1.777537e-11,	2502.42,	4.08764e-12,	2502.12,	1.972928e-09,	2502.27,	1.51362e-10,	2502.35,	3.108495e-10,	2502.57,	3.613187e-09
3568.56,	1.66446,	0.0100021,	10,	2523.58,	3.372101e-08,	2523.88,	1.814209e-11,	2523.8,	3.779665e-12,	2523.51,	1.977206e-09,	2523.65,	1.48339e-10,	2523.73,	3.091963e-10,	2523.95,	3.593882e-09
3606.56,	1.6678,	0.0100023,	10,	2544.96,	3.381494e-08,	2545.26,	1.895513e-11,	2545.18,	4.230855e-12,	2544.89,	1.97431e-09,	2545.04,	1.485038e-10,	2545.11,	3.108174e-10,	2545.33,	3.599852e-09
3644.56,	1.67065,	0.0100019,	10,	2566.34,	3.490453e-08,	2566.64,	1.79297e-11,	2566.57,	3.853299e-12,	2566.27,	1.979968e-09,	2566.42,	1.50967e-10,	2566.49,	3.099745e-10,	2566.71,	3.575754e-09
3682.56,	1.67306,	0.01000226,	10,	2587.72,	3.385304e-08,	2588.02,	1.794161e-11,	2587.95,	3.698183e-12,	2587.65,	1.985166e-09,	2587.8,	1.485728e-10,	2587.87,	2.561368e-10,	2588.1,	3.581084e-09
3720.56,	1.67532,	0.0100011,	10,	2609.1,	3.355542e-08,	2609.4,	1.807243e-11,	2609.33,	3.872553e-12,	2609.03,	1.987042e-09,	2609.18,	1.481669e-10,	2609.25,	2.40107e-10,	2609.48,	3.620366e-09
3758.56,	1.67722,	0.010002,	10,	2630.48,	3.393668e-08,	2630.78,	1.776862e-11,	2630.71,	4.049327e-12,	2630.41,	1.997884e-09,	2630.56,	1.463405e-10,	2630.63,	2.432554e-10,	2630.86,	3.607077e-09
3785.6,	1.53785,	4.067152e-07,	11,	2651.87,	3.388585e-08,	2652.16,	1.791971e-11,	2652.09,	3.928198e-12,	2651.79,	1.998436e-09,	2651.94,	1.477966e-10,	2652.02,	2.411705e-10,	2652.24,	3.598215e-09
3823.6,	1.47302,	1.322206e-06,	11,	2673.25,	3.383011e-08,	2673.55,	1.784634e-11,	2673.47,	3.702776e-12,	2673.17,	2.000378e-09,	2673.32,	1.491187e-10,	2673.4,	2.396529e-10,	2673.62,	3.548183e-09
3861.6,	1.44885,	1.13148e-06,	11,	2694.63,	3.372794e-08,	2694.93,	1.707762e-11,	2694.85,	4.153484e-12,	2694.55,	1.986413e-09,	2694.7,	1.453181e-10,	2694.78,	2.383189e-10,	2695,	3.532688e-09
3899.6,	1.43176,	6.35588e-07,	11,	2716.01,	3.388329e-08,	2716.31,	1.741217e-11,	2716.23,	4.174659e-12,	2715.94,	1.998385e-09,	2716.09,	1.482071e-10,	2716.16,	2.389139e-10,	2716.38,	3.59389e-09
3937.6,	1.4176,	1.09333e-06,	11,	2737.39,	3.376466e-08,	2737.69,	1.70556e-11,	2737.62,	3.532897e-12,	2737.32,	1.99153e-09,	2737.47,	1.464259e-10,	2737.54,	2.373787e-10,	2737.76,	3.572643e-09
3975.6,	1.40502,	9.78897e-07,	11,	2758.77,	3.385423e-08,	2759.07,	1.729106e-11,	2759,	3.611681e-12,	2758.7,	2.003992e-09,	2758.85,	1.468467e-10,	2758.92,	2.381302e-10,	2759.14,	3.574791e-09
4013.6,	1.39358,	1.74181e-06,	11,	2780.15,	3.377621e-08,	2780.45,	1.72361e-11,	2780.38,	4.228944e-12,	2780.08,	2.003656e-09,	2780.23,	1.466322e-10,	2780.3,	2.364918e-10,	2780.53,	3.588392e-09
4051.6,	1.38295,	1.818097e-06,	11,	2801.54,	3.3794e-08,	2801.83,	1.758754e-11,	2801.76,	3.589526e-12,	2801.46,	1.998856e-09,	2801.61,	1.469624e-10,	2801.68,	2.366541e-10,	2801.91,	3.59892e-09
4079.69,	1.4569,	0.0150015,	12,	2822.92,	3.517016e-08,	2823.21,	1.715721e-11,	2823.14,	3.566547e-12,	2822.84,	2.000007e-09,	2822.99,	1.461004e-10,	2823.07,	2.356316e-10,	2823.29,	3.566631e-09
4097.47,	1.68568,	0.0150029,	12,	2844.3,	3.371922e-08,	2844.6,	1.74822e-11,	2844.52,	3.784095e-12,	2844.22,	2.010088e-09,	2844.37,	1.433598e-10,	2844.45,	2.349633e-10,	2844.67,	3.587356e-09
4135.47,	1.69222,	0.0150016,	12,	2865.68,	3.406334e-08,	2865.97,	1.718276e-11,	2865.9,	3.913584e-12,	2865.6,	2.005453e-09,	2865.75,	1.438888e-10,	2865.83,	2.363368e-10,	2866.05,	3.573934e-09
4173.47,	1.69586,	0.0150016,	12,	2887.06,	3.381561e-08,	2887.36,	1.753676e-11,	2887.28,	3.698609e-12,	2886.98,	2.018932e-09,	2887.13,	1.435355e-10,	2887.21,	3.292135e-10,	2887.43,	3.555312e-09
4211.47,	1.69863,	0.0150026,	12,	2908.44,	3.380799e-08,	2908.74,	1.805011e-11,	2908.66,	3.539081e-12,	2908.37,	1.999032e-09,	2908.52,	1.460778e-10,	2908.59,	3.763828e-10,	2908.81,	3.613296e-09
4249.47,	1.69998,	0.0150023,	12,	2929.82,	3.377225e-08,	2930.12,	1.81384e-11,	2930.05,	3.555296e-12,	2929.75,	1.981607e-09,	2929.9,	1.423483e-10,	2929.97,	3.752145e-10,	2930.19,	3.590434e-09
4287.47,	1.70248,	0.015002,	12,	2951.2,	3.497004e-08,	2951.5,	1.794973e-11,	2951.43,	3.715264e-12,	2951.13,	1.992603e-09,	2951.28,	1.440958e-10,	2951.35,	3.726074e-10,	2951.58,	3.58509e-09
4325.47,	1.70445,	0.0150016,	12,	2972.58,	3.364928e-08,	2972.88,	1.806891e-11,	2972.81,	3.853123e-12,	2972.51,	1.990464e-09,	2972.66,	1.446702e-10,	2972.73,	3.798144e-10,	2972.95,	3.579737e-09
4363.47,	1.70618,	0.0150029,	12,	2993.96,	3.366205e-08,	2994.26,	1.720285e-11,	2994.19,	3.640296e-12,	2993.89,	1.988685e-09,	2994.04,	1.438998e-10,	2994.11,	3.775771e-10,	2994.34,	3.596536e-09
4389.02,	1.53647,	1.245915e-06,	13,	3015.35,	3.379392e-08,	3015.64,	1.77189e-11,	3015.57,	3.811919e-12,	3015.27,	1.983557e-09,	3015.42,	1.446858e-10,	3015.49,	3.807324e-10,	3015.72,	3.557255e-09
4427.02,	1.48258,	9.02606e-07,	13,	3036.73,	3.40227e-08,	3037.03,	1.784766e-11,	3036.95,	3.591474e-12,	3036.65,	1.976192e-09,	3036.8,	1.422494e-10,	3036.88,	3.774723e-10,	3037.1,	3.561241e-09
4465.02,	1.46075,	1.36035e-06,	13,	3058.11,	3.373033e-08,	3058.41,	1.76449e-11,	3058.33,	3.912401e-12,	3058.04,	1.992085e-09,	3058.18,	1.422007e-10,	3058.26,	3.817079e-10,	3058.48,	3.575745e-09
4503.02,	1.44524,	4.067152e-07,	13,	3079.49,	3.394379e-08,	3079.79,	1.802219e-11,	3079.71,	3.726863e-12,	3079.41,	1.995393e-09,	3079.56,	1.412794e-10,	3079.64,	3.770853e-10,	3079.86,	3.583467e-09
4541.02,	1.432369,	1.20777e-06,	13,	3100.87,	3.387143e-08,	3101.17,	1.792098e-11,	3101.09,	3.317513e-12,	3100.8,	1.996388e-09,	3100.94,	1.384999e-10,	3101.02,	3.812398e-10,	3101.24,	3.537607e-09
4579.02,	1.421626,	7.11879e-07,	13,	3122.25,	3.394952e-08,	3122.55,	1.740373e-11,	3122.48,	3.385336e-12,	3122.18,	1.991629e-09,	3122.33,	1.382543e-10,	3122.4,	3.769155e-10,	3122.625,	3.601619e-09
4617.02,	1.41151,	1.32221e-06,	13,	3143.63,	3.368096e-08,	3143.93,	1.793848e-11,	3143.86,	3.487928e-12,	3143.56,	1.992159e-09,	3143.71,	1.373977e-10,	3143.78,	3.78601e-10,	3144.01,	3.568343e-09
4655.02,	1.40236,	1.894388e-06,	13,	3165.01,	3.373053e-08,	3165.31,	1.677488e-11,	3165.24,	3.444755e-12,	3164.94,	1.97773e-09,	3165.09,	1.382033e-10,	3165.16,	3.734807e-10,	3165.39,	3.541679e-09
4679.71,	1.51817,	0.0200019,	14,	3186.39,	3.400489e-08,	3186.69,	1.73679e-11,	3186.62,	3.784865e-12,	3186.32,	1.999743e-09,	3186.47,	1.351898e-10,	3186.54,	2.715028e-10,	3186.77,	3.556443e-09
4701.23,	1.71044,	0.0200031,	14,	3207.78,	3.386814e-08,	3208.07,	1.668775e-11,	3208.0,	3.490791e-12,	3207.7,	2.009543e-09,	3207.85,	1.334583e-10,	3207.92,	2.35124e-10,	3208.15,	3.587849e-09
4739.23,	1.71609,	0.0200014,	14,	3229.16,	3.36577e-08,	3229.45,	1.671731e-11,	3229.38,	3.336773e-12,	3229.08,	2.021223e-09,	3229.23,	1.324909e-10,	3229.31,	2.336607e-10,	3229.53,	3.55212e-09
4777.23,	1.71923,	0.02000255,	14,	3250.54,	3.413176e-08,	3250.84,	1.745451e-11,	3250.76,	3.540446e-12,	3250.46,	2.029423e-09,	3250.61,	1.36843e-10,	3250.69,	2.341688e-10,	3250.91,	3.59229e-09
4815.23,	1.72173,	0.0200026,	14,	3271.92,	3.392562e-08,	3272.22,	1.739587e-11,	3272.14,	3.45598e-12,	3271.85,	2.028393e-09,	3271.99,	1.34645e-10,	3272.07,	2.305509e-10,	3272.29,	3.544014e-09
4853.23,	1.72385,	0.0200016,	14,	3293.3,	3.383709e-08,	3293.6,	1.684093e-11,	3293.52,	3.420751e-12,	3293.23,	2.022743e-09,	3293.375,	1.321273e-10,	3293.45,	2.310764e-10,	3293.67,	3.505659e-09
4891.23,	1.725649,	0.0200017,	14,	3314.68,	3.371753e-08,	3314.98,	1.703704e-11,	3314.91,	3.155971e-12,	3314.61,	2.018419e-09,	3314.76,	1.334166e-10,	3314.83,	2.317565e-10,	3315.06,	3.542727e-09
4929.23,	1.727223,	0.0200028,	14,	3336.06,	3.410618e-08,	3336.36,	1.667324e-11,	3336.29,	3.490717e-12,	3335.99,	2.022849e-09,	3336.14,	1.328654e-10,	3336.21,	2.307098e-10,	3336.44,	3.569979e-09
4967.23,	1.72885,	0.0200022,	14,	3357.44,	3.42748e-08,	3357.74,	1.724134e-11,	3357.67,	3.335865e-12,	3357.37,	2.030413e-09,	3357.52,	1.325666e-10,	3357.59,	2.312948e-10,	3357.82,	3.590606e-09
4991.79,	1.53802,	5.21152e-07,	15,	3378.83,	3.53229e-08,	3379.12,	1.684055e-11,	3379.05,	3.352093e-12,	3378.75,	2.028413e-09,	3378.9,	1.36493e-10,	3378.97,	2.305863e-10,	3379.2,	3.600573e-09
5029.79,	1.49026,	1.8181e-06,	15,	3400.21,	3.437532e-08,	3400.51,	1.678083e-11,	3400.43,	3.018462e-12,	3400.13,	2.03354e-09,	3400.28,	1.360928e-10,	3400.36,	2.314139e-10,	3400.58,	3.555682e-09
5067.79,	1.46959,	1.474788e-06,	15,	3421.59,	3.423959e-08,	3421.88,	1.686057e-11,	3421.81,	3.303055e-12,	3421.51,	2.039325e-09,	3421.66,	1.333941e-10,	3421.74,	2.293501e-10,	3421.96,	3.566272e-09
5105.79,	1.45521,	1.36035e-06,	15,	3442.97,	3.389502e-08,	3443.27,	1.6533e-11,	3443.19,	3.33562e-12,	3442.9,	2.037086e-09,	3443.05,	1.322616e-10,	3443.12,	2.277825e-10,	3443.34,	3.526657e-09
5143.79,	1.44343,	1.62737e-06,	15,	3464.35,	3.386759e-08,	3464.65,	1.679342e-11,	3464.57,	2.999591e-12,	3464.28,	2.023264e-09,	3464.42,	1.300326e-10,	3464.5,	2.295121e-10,	3464.72,	3.580267e-09
5181.79,	1.4334,	5.97442e-07,	15,	3485.73,	3.383884e-08,	3486.03,	1.761821e-11,	3485.96,	3.369314e-12,	3485.66,	2.024465e-09,	3485.81,	1.316244e-10,	3485.88,	4.212994e-10,	3486.11,	3.5547e-09
5219.79,	1.42416,	1.322206e-06,	15,	3507.11,	3.401169e-08,	3507.41,	1.772502e-11,	3507.34,	3.483088e-12,	3507.04,	1.991887e-09,	3507.19,	1.287031e-10,	3507.26,	5.030888e-10,	3507.48,	3.538945e-09
5257.79,	1.415926,	1.01704e-06,	15,	3528.49,	3.526473e-08,	3528.79,	1.783967e-11,	3528.72,	3.356147e-12,	3528.42,	1.992356e-09,	3528.57,	1.35679e-10,	3528.64,	5.063711e-10,	3528.87,	3.585815e-09
,	,	,	,	3549.88,	3.366384e-08,	3550.17,	1.748391e-11,	3550.1,	3.047073e-12,	3549.8,	1.983688e-09,	3549.95,	1.360771e-10,	3550.03,	5.146258e-10,	3550.25,	3.578935e-09
,	,	,	,	3571.26,	3.387487e-08,	3571.56,	1.737557e-11,	3571.48,	3.171562e-12,	3571.18,	1.980458e-09,	3571.33,	1.349518e-10,	3571.41,	5.205644e-10,	3571.63,	3.540431e-09
,	,	,	,	3592.64,	3.378263e-08,	3592.94,	1.77717e-11,	3592.86,	3.41385e-12,	3592.56,	1.982485e-09,	3592.71,	1.312253e-10,	3592.79,	5.138816e-10,	3593.01,	3.56589e-09
,	,	,	,	3614.02,	3.378269e-08,	3614.32,	1.695814e-11,	3614.24,	3.048968e-12,	3613.94,	1.988202e-09,	3614.09,	1.312607e-10,	3614.17,	5.15425e-10,	3614.39,	3.556253e-09
,	,	,	,	3635.4,	3.377233e-08,	3635.7,	1.808843e-11,	3635.62,	3.637792e-12,	3635.33,	1.982727e-09,	3635.47,	1.329236e-10,	3635.55,	5.237278e-10,	3635.77,	3.569323e-09
,	,	,	,	3656.78,	3.391429e-08,	3657.08,	1.743874e-11,	3657.01,	3.708112e-12,	3656.71,	1.985348e-09,	3656.86,	1.338017e-10,	3656.93,	5.162208e-10,	3657.15,	3.56391e-09
,	,	,	,	3678.16,	3.372487e-08,	3678.46,	1.734577e-11,	3678.38,	2.972891e-12,	3678.09,	1.980472e-09,	3678.24,	1.318781e-10,	3678.31,	5.254481e-10,	3678.53,	3.543386e-09
,	,	,	,	3699.54,	3.371568e-08,	3699.84,	1.747991e-11,	3699.77,	3.110113e-12,	3699.47,	1.97402e-09,	3699.62,	1.325727e-10,	3699.69,	5.238316e-10,	3699.92,	3.567057e-09
,	,	,	,	3720.92,	3.360297e-08,	3721.22,	1.794924e-11,	3721.15,	3.47203e-12,	3720.85,	1.978282e-09,	3721,	1.343205e-10,	3721.07,	5.213435e-10,	3721.3,	3.547536e-09
,	,	,	,	3742.31,	3.510465e-08,	3742.6,	1.700939e-11,	3742.53,	3.33089e-12,	3742.23,	1.984677e-09,	3742.38,	1.343853e-10,	3742.45,	5.239375e-10,	3742.68,	3.597294e-09
,	,	,	,	3763.69,	3.383603e-08,	3763.98,	1.742936e-11,	3763.91,	3.454882e-12,	3763.61,	1.975813e-09,	3763.76,	1.340729e-10,	3763.84,	5.178635e-10,	3764.06,	3.569156e-09
,	,	,	,	3785.07,	3.521743e-08,	3785.37,	1.75554e-11,	3785.29,	3.478656e-12,	3784.99,	2.001726e-09,	3785.14,	1.332721e-10,	3785.22,	3.282425e-10,	3785.44,	3.533341e-09
,	,	,	,	3806.45,	3.393404e-08,	3806.75,	1.709286e-11,	3806.67,	3.359697e-12,	3806.375,	2.026941e-09,	3806.52,	1.352984e-10,	3806.6,	2.386173e-10,	3806.82,	3.558247e-09
,	,	,	,	3827.83,	3.381286e-08,	3828.13,	1.67011e-11,	3828.05,	3.312468e-12,	3827.76,	2.028117e-09,	3827.9,	1.319301e-10,	3827.98,	2.386168e-10,	3828.2,	3.521128e-09
,	,	,	,	3849.21,	3.411514e-08,	3849.51,	1.706348e-11,	3849.44,	3.316768e-12,	3849.14,	2.039063e-09,	3849.29,	1.32123e-10,	3849.36,	2.365738e-10,	3849.59,	3.567306e-09
,	,	,	,	3870.59,	3.398406e-08,	3870.89,	1.636952e-11,	3870.82,	3.353317e-12,	3870.52,	2.032549e-09,	3870.67,	1.331446e-10,	3870.74,	2.336342e-10,	3870.97,	3.580747e-09
,	,	,	,	3891.97,	3.424045e-08,	3892.27,	1.648189e-11,	3892.2,	3.656106e-12,	3891.9,	2.036856e-09,	3892.05,	1.354906e-10,	3892.12,	2.323441e-10,	3892.35,	3.593469e-09
,	,	,	,	3913.36,	3.400971e-08,	3913.65,	1.644674e-11,	3913.58,	3.621458e-12,	3913.28,	2.02748e-09,	3913.43,	1.304204e-10,	3913.5,	2.307856e-10,	3913.73,	3.561629e-09
,	,	,	,	3934.74,	3.396897e-08,	3935.04,	1.681423e-11,	3934.96,	3.189501e-12,	3934.66,	2.040867e-09,	3934.81,	1.320956e-10,	3934.89,	2.2969e-10,	3935.11,	3.546908e-09
,	,	,	,	3956.12,	3.411383e-08,	3956.42,	1.640805e-11,	3956.34,	3.302747e-12,	3956.04,	2.044289e-09,	3956.19,	1.322673e-10,	3956.27,	2.297504e-10,	3956.49,	3.524397e-09
,	,	,	,	3977.5,	3.425841e-08,	3977.8,	1.664325e-11,	3977.72,	3.071829e-12,	3977.42,	2.047449e-09,	3977.57,	1.310688e-10,	3977.65,	2.267788e-10,	3977.87,	3.547485e-09
,	,	,	,	3998.88,	3.435101e-08,	3999.18,	1.661731e-11,	3999.1,	3.174813e-12,	3998.81,	2.045149e-09,	3998.95,	1.312321e-10,	3999.03,	2.302128e-10,	3999.25,	3.563457e-09
,	,	,	,	4020.26,	3.410343e-08,	4020.56,	1.61197e-11,	4020.48,	3.231305e-12,	4020.19,	2.049036e-09,	4020.34,	1.295938e-10,	4020.41,	2.282216e-10,	4020.63,	3.560444e-09
,	,	,	,	4041.64,	3.429854e-08,	4041.94,	1.641257e-11,	4041.87,	3.305333e-12,	4041.57,	2.05055e-09,	4041.72,	1.318281e-10,	4041.79,	2.271987e-10,	4042.02,	3.538802e-09
,	,	,	,	4063.02,	3.411532e-08,	4063.32,	1.666723e-11,	4063.25,	2.996523e-12,	4062.95,	2.047235e-09,	4063.1,	1.30637e-10,	4063.17,	2.30386e-10,	4063.4,	3.526226e-09
,	,	,	,	4084.4,	3.396013e-08,	4084.7,	1.710204e-11,	4084.63,	3.128881e-12,	4084.33,	2.027091e-09,	4084.48,	1.306353e-10,	4084.55,	4.871542e-10,	4084.78,	3.506464e-09
,	,	,	,	4105.79,	3.377184e-08,	4106.09,	1.758878e-11,	4106.01,	3.019979e-12,	4105.71,	1.98453e-09,	4105.86,	1.316466e-10,	4105.94,	6.445812e-10,	4106.16,	3.575839e-09
,	,	,	,	4127.17,	3.365675e-08,	4127.46,	1.762503e-11,	4127.39,	3.038378e-12,	4127.09,	1.976617e-09,	4127.24,	1.343922e-10,	4127.32,	6.554577e-10,	4127.54,	3.561794e-09
,	,	,	,	4148.55,	3.361551e-08,	4148.85,	1.794102e-11,	4148.77,	3.48615e-12,	4148.47,	1.979932e-09,	4148.62,	1.362673e-10,	4148.7,	6.517114e-10,	4148.92,	3.539737e-09
,	,	,	,	4169.93,	3.380745e-08,	4170.23,	1.744382e-11,	4170.15,	3.173874e-12,	4169.86,	1.981502e-09,	4170,	1.323981e-10,	4170.08,	6.555374e-10,	4170.3,	3.544552e-09
,	,	,	,	4191.31,	3.4069e-08,	4191.61,	1.787919e-11,	4191.53,	3.167054e-12,	4191.24,	1.958077e-09,	4191.38,	1.344994e-10,	4191.46,	6.60086e-10,	4191.68,	3.522732e-09
,	,	,	,	4212.69,	3.410123e-08,	4212.99,	1.777638e-11,	4212.92,	3.500133e-12,	4212.62,	1.967657e-09,	4212.77,	1.371144e-10,	4212.84,	6.666783e-10,	4213.07,	3.571361e-09
,	,	,	,	4234.07,	3.356854e-08,	4234.37,	1.704561e-11,	4234.3,	3.208135e-12,	4234,	1.972587e-09,	4234.15,	1.360056e-10,	4234.22,	6.658233e-10,	4234.45,	3.584592e-09
,	,	,	,	4255.45,	3.510455e-08,	4255.75,	1.783901e-11,	4255.68,	3.172232e-12,	4255.38,	1.972071e-09,	4255.53,	1.373596e-10,	4255.6,	6.653329e-10,	4255.83,	3.518865e-09
,	,	,	,	4276.84,	3.373423e-08,	4277.13,	1.791282e-11,	4277.06,	3.048582e-12,	4276.76,	1.97004e-09,	4276.91,	1.352884e-10,	4276.98,	6.737773e-10,	4277.21,	3.546499e-09
,	,	,	,	4298.22,	3.380616e-08,	4298.52,	1.806059e-11,	4298.44,	3.554854e-12,	4298.14,	1.953869e-09,	4298.29,	1.357794e-10,	4298.37,	6.689754e-10,	4298.59,	3.55601e-09
,	,	,	,	4319.6,	3.364316e-08,	4319.9,	1.753148e-11,	4319.82,	3.148606e-12,	4319.52,	1.957865e-09,	4319.67,	1.321705e-10,	4319.75,	6.739445e-10,	4319.97,	3.563003e-09
,	,	,	,	4340.98,	3.372814e-08,	4341.28,	1.789647e-11,	4341.2,	3.185617e-12,	4340.9,	1.962235e-09,	4341.05,	1.344188e-10,	4341.13,	6.710232e-10,	4341.35,	3.542568e-09
,	,	,	,	4362.36,	3.365108e-08,	4362.66,	1.768107e-11,	4362.58,	3.09657e-12,	4362.29,	1.967366e-09,	4362.43,	1.357135e-10,	4362.51,	6.688342e-10,	4362.73,	3.564918e-09
,	,	,	,	4383.74,	3.394431e-08,	4384.04,	1.718005e-11,	4383.96,	3.398569e-12,	4383.67,	1.979159e-09,	4383.82,	1.368445e-10,	4383.89,	4.129178e-10,	4384.11,	3.485889e-09
,	,	,	,	4405.12,	3.527927e-08,	4405.42,	1.670512e-11,	4405.35,	3.358219e-12,	4405.05,	2.014418e-09,	4405.2,	1.34461e-10,	4405.27,	2.47276e-10,	4405.49,	3.537057e-09
,	,	,	,	4426.5,	3.393071e-08,	4426.8,	1.70676e-11,	4426.73,	3.403014e-12,	4426.43,	2.032541e-09,	4426.58,	1.349636e-10,	4426.65,	2.390715e-10,	4426.88,	3.546432e-09
,	,	,	,	4447.88,	3.411248e-08,	4448.18,	1.701303e-11,	4448.11,	3.400013e-12,	4447.81,	2.036253e-09,	4447.96,	1.34386e-10,	4448.03,	2.397842e-10,	4448.26,	3.525477e-09
,	,	,	,	4469.27,	3.395876e-08,	4469.56,	1.68684e-11,	4469.49,	3.386968e-12,	4469.19,	2.037847e-09,	4469.34,	1.37333e-10,	4469.41,	2.357369e-10,	4469.64,	3.575158e-09
,	,	,	,	4490.65,	3.418454e-08,	4490.94,	1.682973e-11,	4490.87,	3.237467e-12,	4490.57,	2.04037e-09,	4490.72,	1.329503e-10,	4490.8,	2.345482e-10,	4491.02,	3.552556e-09
,	,	,	,	4512.03,	3.43132e-08,	4512.33,	1.627807e-11,	4512.25,	3.1314e-12,	4511.95,	2.046127e-09,	4512.1,	1.346939e-10,	4512.18,	2.365985e-10,	4512.4,	3.534487e-09
,	,	,	,	4533.41,	3.388281e-08,	4533.71,	1.656799e-11,	4533.63,	3.07449e-12,	4533.34,	2.042391e-09,	4533.48,	1.327114e-10,	4533.56,	2.318219e-10,	4533.78,	3.557032e-09
,	,	,	,	4554.79,	3.41802e-08,	4555.09,	1.623194e-11,	4555.01,	3.095977e-12,	4554.72,	2.0428e-09,	4554.87,	1.333385e-10,	4554.94,	2.312973e-10,	4555.16,	3.531953e-09
,	,	,	,	4576.17,	3.534478e-08,	4576.47,	1.594723e-11,	4576.4,	3.443868e-12,	4576.1,	2.058331e-09,	4576.25,	1.345131e-10,	4576.32,	2.317376e-10,	4576.55,	3.520749e-09
,	,	,	,	4597.55,	3.398662e-08,	4597.85,	1.672879e-11,	4597.78,	3.678407e-12,	4597.48,	2.05111e-09,	4597.63,	1.349962e-10,	4597.7,	2.32918e-10,	4597.92,	3.543378e-09
,	,	,	,	4618.93,	3.412706e-08,	4619.23,	1.654209e-11,	4619.16,	3.300827e-12,	4618.86,	2.053873e-09,	4619.01,	1.365764e-10,	4619.08,	2.2909e-10,	4619.31,	3.562555e-09
,	,	,	,	4640.32,	3.407874e-08,	4640.61,	1.635893e-11,	4640.54,	2.992473e-12,	4640.24,	2.049692e-09,	4640.39,	1.31796e-10,	4640.46,	2.273771e-10,	4640.69,	3.521279e-09
,	,	,	,	4661.7,	3.452224e-08,	4661.99,	1.624517e-11,	4661.92,	3.347116e-12,	4661.62,	2.051889e-09,	4661.77,	1.340491e-10,	4661.85,	2.304716e-10,	4662.07,	3.583329e-09
,	,	,	,	4683.08,	3.396049e-08,	4683.38,	1.75027e-11,	4683.3,	3.118727e-12,	4683,	2.026239e-09,	4683.15,	1.337661e-10,	4683.23,	5.151576e-10,	4683.45,	3.547067e-09
,	,	,	,	4704.46,	3.354576e-08,	4704.76,	1.796516e-11,	4704.68,	3.149761e-12,	4704.38,	1.977175e-09,	4704.53,	1.375372e-10,	4704.61,	7.794492e-10,	4704.83,	3.472939e-09
,	,	,	,	4725.84,	3.39131e-08,	4726.14,	1.754083e-11,	4726.06,	3.448953e-12,	4725.77,	1.974692e-09,	4725.91,	1.348703e-10,	4725.99,	7.99594e-10,	4726.21,	3.518552e-09
,	,	,	,	4747.22,	3.356018e-08,	4747.52,	1.848803e-11,	4747.44,	3.426326e-12,	4747.15,	1.9683e-09,	4747.3,	1.348354e-10,	4747.37,	8.020136e-10,	4747.59,	3.516648e-09
,	,	,	,	4768.6,	3.352069e-08,	4768.9,	1.807234e-11,	4768.83,	3.358537e-12,	4768.53,	1.947159e-09,	4768.68,	1.360953e-10,	4768.75,	8.074105e-10,	4768.98,	3.502235e-09
,	,	,	,	4789.98,	3.341339e-08,	4790.28,	1.802933e-11,	4790.21,	3.249633e-12,	4789.91,	1.941033e-09,	4790.06,	1.343576e-10,	4790.13,	8.037767e-10,	4790.36,	3.514379e-09
,	,	,	,	4811.37,	3.361342e-08,	4811.66,	1.804349e-11,	4811.59,	3.149471e-12,	4811.29,	1.939238e-09,	4811.44,	1.344776e-10,	4811.51,	8.193498e-10,	4811.74,	3.512066e-09
,	,	,	,	4832.75,	3.333296e-08,	4833.04,	1.759286e-11,	4832.97,	3.091581e-12,	4832.67,	1.940515e-09,	4832.82,	1.359095e-10,	4832.89,	8.098806e-10,	4833.12,	3.510316e-09
,	,	,	,	4854.13,	3.495191e-08,	4854.43,	1.783783e-11,	4854.35,	3.294138e-12,	4854.05,	1.931775e-09,	4854.2,	1.36018e-10,	4854.28,	8.204067e-10,	4854.5,	3.520958e-09
,	,	,	,	4875.51,	3.344974e-08,	4875.81,	1.832335e-11,	4875.73,	3.05865e-12,	4875.43,	1.934658e-09,	4875.58,	1.352797e-10,	4875.66,	8.160804e-10,	4875.88,	3.515941e-09
,	,	,	,	4896.89,	3.338943e-08,	4897.19,	1.816448e-11,	4897.11,	3.08895e-12,	4896.81,	1.931927e-09,	4896.96,	1.367398e-10,	4897.04,	8.114113e-10,	4897.26,	3.474751e-09
,	,	,	,	4918.27,	3.334214e-08,	4918.57,	1.820109e-11,	4918.49,	3.262575e-12,	4918.2,	1.927395e-09,	4918.35,	1.370721e-10,	4918.42,	8.162933e-10,	4918.64,	3.501843e-09
,	,	,	,	4939.65,	3.337081e-08,	4939.95,	1.783594e-11,	4939.88,	3.062749e-12,	4939.58,	1.930641e-09,	4939.73,	1.307321e-10,	4939.8,	8.242144e-10,	4940.03,	3.535229e-09
,	,	,	,	4961.03,	3.466808e-08,	4961.33,	1.769815e-11,	4961.26,	3.19692e-12,	4960.96,	1.928199e-09,	4961.11,	1.34462e-10,	4961.18,	8.233985e-10,	4961.4,	3.484778e-09
,	,	,	,	4982.41,	3.356418e-08,	4982.71,	1.749373e-11,	4982.64,	3.125744e-12,	4982.34,	1.953607e-09,	4982.49,	1.333565e-10,	4982.56,	5.480825e-10,	4982.79,	3.557575e-09
,	,	,	,	5003.8,	3.388426e-08,	5004.09,	1.723745e-11,	5004.02,	3.119493e-12,	5003.72,	2.00486e-09,	5003.87,	1.329894e-10,	5003.94,	2.55189e-10,	5004.17,	3.517108e-09
,	,	,	,	5025.18,	3.543206e-08,	5025.47,	1.670784e-11,	5025.4,	3.094784e-12,	5025.1,	2.019209e-09,	5025.25,	1.320635e-10,	5025.33,	2.465224e-10,	5025.55,	3.52232e-09
,	,	,	,	5046.56,	3.404277e-08,	5046.85,	1.720037e-11,	5046.78,	2.65357e-12,	5046.48,	2.023914e-09,	5046.63,	1.34593e-10,	5046.7,	2.4058e-10,	5046.93,	3.482914e-09
,	,	,	,	5067.94,	3.381949e-08,	5068.24,	1.652746e-11,	5068.16,	2.929873e-12,	5067.86,	2.010881e-09,	5068.01,	1.307982e-10,	5068.09,	2.374625e-10,	5068.31,	3.485709e-09
,	,	,	,	5089.32,	3.378466e-08,	5089.62,	1.6803e-11,	5089.54,	3.038493e-12,	5089.25,	2.035653e-09,	5089.39,	1.316977e-10,	5089.47,	2.385384e-10,	5089.69,	3.53798e-09
,	,	,	,	5110.7,	3.526109e-08,	5111,	1.639846e-11,	5110.92,	2.963885e-12,	5110.63,	2.042413e-09,	5110.78,	1.333595e-10,	5110.85,	2.344519e-10,	5111.07,	3.534628e-09
,	,	,	,	5132.08,	3.387857e-08,	5132.38,	1.631934e-11,	5132.31,	2.86707e-12,	5132.01,	2.034913e-09,	5132.16,	1.326108e-10,	5132.23,	2.34828e-10,	5132.45,	3.512919e-09
,	,	,	,	5153.46,	3.432807e-08,	5153.76,	1.623427e-11,	5153.69,	3.045524e-12,	5153.39,	2.046465e-09,	5153.54,	1.336463e-10,	5153.61,	2.312514e-10,	5153.84,	3.501741e-09
,	,	,	,	5174.85,	3.41206e-08,	5175.14,	1.712161e-11,	5175.07,	3.038564e-12,	5174.77,	2.054016e-09,	5174.92,	1.311847e-10,	5174.99,	2.339953e-10,	5175.22,	3.478935e-09
,	,	,	,	5196.23,	3.404693e-08,	5196.52,	1.63389e-11,	5196.45,	2.921445e-12,	5196.15,	2.039967e-09,	5196.3,	1.349256e-10,	5196.375,	2.343409e-10,	5196.6,	3.521939e-09
,	,	,	,	5217.61,	3.415821e-08,	5217.9,	1.620652e-11,	5217.83,	3.251622e-12,	5217.53,	2.054076e-09,	5217.68,	1.347657e-10,	5217.76,	2.302265e-10,	5217.98,	3.473887e-09
,	,	,	,	5238.99,	3.41675e-08,	5239.29,	1.628052e-11,	5239.21,	2.924103e-12,	5238.91,	2.058943e-09,	5239.06,	1.300617e-10,	5239.14,	2.291348e-10,	5239.36,	3.513925e-09
,	,	,	,	5260.37,	3.415484e-08,	5260.67,	1.636111e-11,	5260.59,	3.319578e-12,	5260.3,	2.04727e-09,	5260.44,	1.304717e-10,	5260.52,	2.292391e-10,	5260.74,	3.487665e-09
,	,	,	,	5281.75,	3.552305e-08,	5282.05,	1.670905e-11,	5281.97,	2.983308e-12,	5281.68,	2.05917e-09,	5281.83,	1.308016e-10,	5281.9,	2.271371e-10,	5282.12,	3.516141e-09
,	,	,	,	5303.13,	3.428487e-08,	5303.43,	1.622866e-11,	5303.36,	2.978345e-12,	5303.06,	2.059439e-09,	5303.21,	1.312304e-10,	5303.28,	2.264636e-10,	5303.51,	3.514055e-09
,	,	,	,	5324.51,	3.40873e-08,	5324.81,	1.647612e-11,	5324.74,	2.935255e-12,	5324.44,	2.0536e-09,	5324.59,	1.312644e-10,	5324.66,	2.263205e-10,	5324.88,	3.493802e-09
,	,	,	,	5345.89,	3.410807e-08,	5346.19,	1.62573e-11,	5346.12,	3.311912e-12,	5345.82,	2.063828e-09,	5345.97,	1.332023e-10,	5346.04,	2.26648e-10,	5346.27,	3.527409e-09
,	,	,	,	5367.28,	3.431824e-08,	5367.57,	1.648897e-11,	5367.5,	3.34322e-12,	5367.2,	2.049484e-09,	5367.35,	1.325767e-10,	5367.42,	2.255459e-10,	5367.65,	3.466886e-09
,	,	,	,	5388.66,	3.512284e-08,	5388.95,	1.596302e-11,	5388.88,	3.089466e-12,	5388.58,	2.062658e-09,	5388.73,	1.315684e-10,	5388.81,	2.269344e-10,	5389.03,	3.52927e-09
,	,	,	,	5410.04,	3.391238e-08,	5410.34,	1.577825e-11,	5410.26,	2.911508e-12,	5409.96,	2.071331e-09,	5410.11,	1.320669e-10,	5410.19,	2.238704e-10,	5410.41,	3.438833e-09
,	,	,	,	5431.42,	3.417728e-08,	5431.72,	1.612846e-11,	5431.64,	2.853097e-12,	5431.34,	2.051531e-09,	5431.49,	1.296248e-10,	5431.57,	2.236387e-10,	5431.79,	3.48322e-09
,	,	,	,	5452.8,	3.531929e-08,	5453.1,	1.647449e-11,	5453.02,	3.020327e-12,	5452.73,	2.062636e-09,	5452.875,	1.335209e-10,	5452.95,	2.234175e-10,	5453.17,	3.534999e-09
,	,	,	,	5474.18,	3.404504e-08,	5474.48,	1.670428e-11,	5474.41,	2.915197e-12,	5474.11,	2.062719e-09,	5474.26,	1.321268e-10,	5474.33,	2.250412e-10,	5474.56,	3.469655e-09
,	,	,	,	5495.56,	3.534475e-08,	5495.86,	1.630681e-11,	5495.79,	2.924004e-12,	5495.49,	2.058537e-09,	5495.64,	1.301855e-10,	5495.71,	2.249121e-10,	5495.93,	3.505991e-09
,	,	,	,	5516.94,	3.439683e-08,	5517.24,	1.622626e-11,	5517.17,	2.881158e-12,	5516.87,	2.062335e-09,	5517.02,	1.316054e-10,	5517.09,	2.254662e-10,	5517.32,	3.509336e-09
,	,	,	,	5538.33,	3.422174e-08,	5538.62,	1.592887e-11,	5538.55,	3.034705e-12,	5538.25,	2.067711e-09,	5538.4,	1.28992e-10,	5538.47,	2.263894e-10,	5538.7,	3.495607e-09
,	,	,	,	5559.7,	3.418982e-08,	5560,	1.636213e-11,	5559.93,	2.632342e-12,	5559.63,	2.065082e-09,	5559.78,	1.310405e-10,	5559.85,	2.219841e-10,	5560.08,	3.509204e-09
,	,	,	,	5581.09,	3.429571e-08,	5581.38,	1.60043e-11,	5581.31,	3.179504e-12,	5581.01,	2.073721e-09,	5581.16,	1.319532e-10,	5581.24,	2.256981e-10,	5581.46,	3.485213e-09
,	,	,	,	5602.47,	3.440717e-08,	5602.77,	1.651597e-11,	5602.69,	2.94314e-12,	5602.39,	2.075162e-09,	5602.54,	1.304457e-10,	5602.62,	2.238491e-10,	5602.84,	3.513448e-09
,	,	,	,	5623.85,	3.452771e-08,	5624.15,	1.583893e-11,	5624.07,	2.880009e-12,	5623.78,	2.076887e-09,	5623.92,	1.329132e-10,	5624,	2.238822e-10,	5624.22,	3.520759e-09
,	,	,	,	5645.23,	3.385491e-08,	5645.53,	1.634632e-11,	5645.45,	2.930723e-12,	5645.15,	2.082436e-09,	5645.3,	1.298094e-10,	5645.38,	2.245218e-10,	5645.6,	3.538226e-09
,	,	,	,	5666.61,	3.458016e-08,	5666.91,	1.637536e-11,	5666.84,	3.035713e-12,	5666.54,	2.092638e-09,	5666.69,	1.322349e-10,	5666.76,	2.250199e-10,	5666.98,	3.548589e-09
,	,	,	,	5687.99,	3.445921e-08,	5688.29,	1.648567e-11,	5688.22,	2.973446e-12,	5687.92,	2.086084e-09,	5688.07,	1.307718e-10,	5688.14,	2.245256e-10,	5688.37,	3.533977e-09
,	,	,	,	5709.375,	3.424617e-08,	5709.67,	1.695884e-11,	5709.6,	3.048195e-12,	5709.3,	2.070806e-09,	5709.45,	1.302623e-10,	5709.52,	2.253405e-10,	5709.75,	3.49042e-09
,	,	,	,	5730.76,	3.445544e-08,	5731.05,	1.641322e-11,	5730.98,	3.152245e-12,	5730.68,	2.08883e-09,	5730.83,	1.319203e-10,	5730.9,	2.24234e-10,	5731.13,	3.503478e-09
,	,	,	,	5743.7,	3.430041e-08,	5743.99,	1.662531e-11,	5743.92,	2.91135e-12,	5743.62,	2.071756e-09,	5743.77,	1.322537e-10,	5743.85,	2.22753e-10,	5744.07,	3.521432e-09