File: Quantification/development/HERonPt_RnD1_newMS.csv
ixdat version = 0.2.2dev
name = 2022-04-06 14_48_52 HER on Pt repeatability.tsv
technique = EC-MS
tstamp = 1649249332.0
backend_name = BackendBase(none, address=none)
id = 4
timecol 'time/s' for: 'Ewe/V' and 'I/mA' and 'selector'
timecol 'M40-x' for: 'M40'
timecol 'M28-x' for: 'M28'
timecol 'M18-x' for: 'M18'
timecol 'M4-x' for: 'M4'
timecol 'M32-x' for: 'M32'
timecol 'M44-x' for: 'M44'
timecol 'M2-x' for: 'M2'
aliases = {"t": ["time/s"], "raw_potential": ["Ewe/V", "<Ewe>/V"], "raw_current": ["I/mA", "<I>/mA"], "cycle": ["cycle number"]}
N_header_lines = 18

time/s,	Ewe/V,	I/mA,	selector,	M40-x,	M40,	M28-x,	M28,	M18-x,	M18,	M4-x,	M4,	M32-x,	M32,	M44-x,	M44,	M2-x,	M2
82.0202,	0.0017556,	0.0002247043,	0,	0.854869,	3.158104e-12,	0.705857,	2.117495e-10,	0.630851,	4.356183e-09,	0.556845,	3.957295e-08,	0.779863,	2.372599e-10,	0.928875,	6.796286e-11,	0.481839,	2.383582e-09
90.6744,	0.001774702,	0.0002464624,	0,	34.0514,	3.242072e-12,	33.9024,	2.024426e-10,	33.8274,	4.062865e-09,	33.7534,	3.749119e-08,	33.9764,	2.242469e-10,	34.1254,	6.400485e-11,	33.6785,	2.215949e-09
100.333,	0.1805041,	0.03558117,	0,	67.2484,	3.059932e-12,	67.0994,	2.017732e-10,	67.0254,	4.021236e-09,	66.9504,	3.738204e-08,	67.1744,	2.212173e-10,	67.3234,	6.262717e-11,	66.8764,	2.201109e-09
109.993,	0.3738579,	0.0738284,	0,	100.444,	3.150665e-12,	100.296,	2.039888e-10,	100.221,	4.012268e-09,	100.147,	3.686196e-08,	100.371,	2.215142e-10,	100.52,	6.296703e-11,	100.072,	2.207585e-09
119.646,	0.5669788,	0.1120329,	0,	133.643,	3.201311e-12,	133.494,	2.019039e-10,	133.419,	4.02565e-09,	133.345,	3.721107e-08,	133.568,	2.194739e-10,	133.717,	6.34848e-11,	133.27,	2.199948e-09
129.181,	0.7576736,	0.1497362,	0,	166.84,	3.30867e-12,	166.691,	1.990616e-10,	166.617,	3.98678e-09,	166.542,	3.683503e-08,	166.766,	2.205415e-10,	166.915,	6.15003e-11,	166.468,	2.202196e-09
138.714,	0.9483608,	0.1875051,	0,	200.036,	3.11406e-12,	199.887,	1.994427e-10,	199.813,	3.980611e-09,	199.738,	3.687733e-08,	199.962,	2.214503e-10,	200.111,	6.227627e-11,	199.664,	2.196345e-09
148.286,	1.13964,	0.2252206,	0,	233.234,	3.294967e-12,	233.085,	1.97618e-10,	233.01,	4.014454e-09,	232.936,	3.68272e-08,	233.159,	2.194752e-10,	233.308,	6.150062e-11,	232.861,	2.212923e-09
157.757,	1.266145,	0.2501992,	0,	266.431,	3.129367e-12,	266.282,	2.009189e-10,	266.207,	3.992823e-09,	266.133,	3.662577e-08,	266.356,	2.183541e-10,	266.505,	5.896508e-11,	266.058,	2.208998e-09
167.282,	1.266145,	0.2501992,	0,	299.628,	3.053e-12,	299.478,	1.985476e-10,	299.405,	3.971866e-09,	299.329,	3.65964e-08,	299.553,	2.195767e-10,	299.703,	6.240319e-11,	299.256,	2.20951e-09
176.878,	1.700607,	0.250216,	0,	332.825,	3.187101e-12,	332.676,	2.020623e-10,	332.601,	3.99611e-09,	332.527,	3.64503e-08,	332.75,	2.186448e-10,	332.899,	6.061521e-11,	332.452,	2.199965e-09
186.402,	1.700607,	0.250216,	0,	366.022,	3.178323e-12,	365.873,	2.044932e-10,	365.798,	3.99474e-09,	365.724,	3.633555e-08,	365.947,	2.176678e-10,	366.096,	6.033814e-11,	365.649,	2.201188e-09
195.917,	1.700607,	0.250216,	0,	399.218,	3.232123e-12,	399.069,	2.060526e-10,	398.995,	3.954177e-09,	398.92,	3.635442e-08,	399.144,	2.209395e-10,	399.293,	6.377384e-11,	398.846,	2.199711e-09
205.383,	1.120126,	0.2213087,	0,	432.414,	3.245385e-12,	432.265,	2.117293e-10,	432.191,	3.910664e-09,	432.116,	3.6408e-08,	432.34,	4.95361e-10,	432.489,	7.931084e-11,	432.042,	2.174451e-09
215.085,	0.926172,	0.1829813,	0,	465.613,	3.354732e-12,	465.464,	2.076707e-10,	465.389,	3.941893e-09,	465.315,	3.63496e-08,	465.538,	2.299192e-10,	465.687,	7.147853e-11,	465.24,	2.202553e-09
224.863,	0.73061,	0.1443352,	0,	498.809,	3.159713e-12,	498.66,	2.082997e-10,	498.586,	3.944773e-09,	498.511,	3.636712e-08,	498.735,	2.192476e-10,	498.884,	6.999078e-11,	498.4375,	2.208951e-09
234.517,	0.5375808,	0.1061502,	0,	532.007,	3.447118e-12,	531.858,	2.088391e-10,	531.784,	3.961546e-09,	531.709,	3.63889e-08,	531.933,	2.197823e-10,	532.082,	6.409529e-11,	531.635,	2.212858e-09
244.09,	0.3459997,	0.0681839,	0,	565.204,	3.145792e-12,	565.055,	2.075842e-10,	564.98,	3.916617e-09,	564.906,	3.645625e-08,	565.129,	2.192759e-10,	565.278,	6.276879e-11,	564.831,	2.204786e-09
253.776,	0.1523096,	0.02991224,	0,	598.401,	3.474857e-12,	598.252,	2.089449e-10,	598.177,	3.930729e-09,	598.103,	3.652141e-08,	598.326,	2.181825e-10,	598.475,	6.129927e-11,	598.028,	2.212939e-09
263.42,	0.1427242,	0.02814793,	1,	631.597,	3.436103e-12,	631.448,	2.101457e-10,	631.374,	3.93519e-09,	631.299,	3.700374e-08,	631.523,	2.18937e-10,	631.672,	6.065136e-11,	631.225,	2.220114e-09
375.593,	0.9247903,	6.132803e-05,	2,	664.795,	3.403844e-12,	664.646,	2.099689e-10,	664.571,	3.926872e-09,	664.497,	3.639718e-08,	664.72,	2.184568e-10,	664.869,	6.685628e-11,	664.422,	2.208933e-09
385.121,	0.9670439,	-0.002950445,	2,	697.992,	3.505056e-12,	697.843,	2.122795e-10,	697.768,	3.892842e-09,	697.694,	3.620963e-08,	697.917,	2.749932e-10,	698.066,	7.404557e-11,	697.619,	2.196711e-09
394.737,	1.159267,	0.001963059,	2,	731.189,	3.553564e-12,	731.04,	2.105373e-10,	730.966,	3.904986e-09,	730.891,	3.628809e-08,	731.115,	2.177294e-10,	731.264,	6.961933e-11,	730.817,	2.208272e-09
404.372,	1.351929,	0.008464138,	2,	764.383,	3.238666e-12,	764.234,	2.096814e-10,	764.16,	3.923857e-09,	764.085,	3.664717e-08,	764.309,	2.152624e-10,	764.458,	6.431309e-11,	764.011,	2.224424e-09
414.047,	1.545455,	0.01342192,	2,	797.583,	3.469039e-12,	797.434,	2.104544e-10,	797.359,	3.89087e-09,	797.285,	3.63347e-08,	797.508,	2.154357e-10,	797.657,	6.24972e-11,	797.21,	2.216599e-09
423.642,	1.664193,	0.01874883,	2,	830.78,	3.275766e-12,	830.631,	2.161992e-10,	830.557,	3.914012e-09,	830.482,	3.61953e-08,	830.706,	2.188868e-10,	830.855,	8.534735e-11,	830.408,	2.205552e-09
433.359,	1.469899,	-0.001818263,	2,	863.976,	3.422152e-12,	863.827,	2.195093e-10,	863.753,	3.882811e-09,	863.678,	3.614637e-08,	863.902,	2.605024e-10,	864.051,	9.930815e-11,	863.604,	2.201395e-09
442.997,	1.277099,	-0.0003570374,	2,	897.173,	3.330431e-12,	897.024,	2.146296e-10,	896.949,	3.873175e-09,	896.875,	3.603828e-08,	897.098,	2.169444e-10,	897.247,	8.097049e-11,	896.8,	2.195077e-09
452.648,	1.084093,	-0.004861337,	2,	930.371,	3.218625e-12,	930.222,	2.10315e-10,	930.147,	4.035093e-09,	930.073,	3.458504e-08,	930.296,	2.191651e-10,	930.445,	7.295216e-11,	929.998,	6.272422e-08
462.27,	0.8913963,	0.0005407688,	2,	963.566,	3.295414e-12,	963.418,	2.129671e-10,	963.343,	3.890348e-09,	963.269,	3.629156e-08,	963.493,	2.142903e-10,	963.641,	6.620612e-11,	963.194,	2.904718e-09
471.797,	0.7009956,	-0.01343821,	2,	996.765,	3.455638e-12,	996.616,	2.153943e-10,	996.541,	3.927542e-09,	996.467,	3.629678e-08,	996.69,	2.189959e-10,	996.839,	7.762831e-11,	996.392,	2.431197e-09
625.393,	0.8972176,	6.247319e-05,	2,	1029.96,	3.568462e-12,	1029.81,	2.212402e-10,	1029.74,	3.839369e-09,	1029.66,	3.588234e-08,	1029.89,	3.55063e-10,	1030.04,	1.012366e-10,	1029.59,	2.272306e-09
634.928,	0.9053474,	0.0001319463,	2,	1063.16,	3.556837e-12,	1063.01,	2.14688e-10,	1062.94,	3.873705e-09,	1062.86,	3.623299e-08,	1063.09,	2.251611e-10,	1063.23,	7.962221e-11,	1062.79,	2.248228e-09
644.428,	1.09542,	0.002661225,	2,	1096.36,	3.561097e-12,	1096.21,	2.161659e-10,	1096.13,	3.919692e-09,	1096.06,	3.673445e-08,	1096.28,	2.170143e-10,	1096.43,	7.222634e-11,	1095.98,	2.238506e-09
654.092,	1.288468,	0.005417246,	2,	1129.55,	3.30254e-12,	1129.4,	2.154213e-10,	1129.33,	3.894949e-09,	1129.26,	3.63034e-08,	1129.48,	2.151579e-10,	1129.63,	6.611866e-11,	1129.18,	2.248004e-09
663.619,	1.479273,	0.008276331,	2,	1162.75,	3.219127e-12,	1162.6,	2.141415e-10,	1162.53,	3.872371e-09,	1162.45,	3.613285e-08,	1162.68,	2.167809e-10,	1162.83,	7.256556e-11,	1162.38,	2.2212e-09
673.149,	1.669701,	0.03210102,	2,	1195.95,	3.507729e-12,	1195.8,	2.243522e-10,	1195.72,	3.807892e-09,	1195.65,	3.589973e-08,	1195.87,	4.94736e-10,	1196.02,	1.072048e-10,	1195.58,	2.189166e-09
682.872,	1.536843,	0.001061435,	2,	1229.14,	3.544596e-12,	1228.99,	2.160703e-10,	1228.92,	3.849005e-09,	1228.85,	3.603072e-08,	1229.07,	2.273159e-10,	1229.22,	8.140386e-11,	1228.77,	2.220095e-09
692.442,	1.34525,	-0.001399897,	2,	1262.34,	3.337109e-12,	1262.19,	2.137776e-10,	1262.12,	3.82137e-09,	1262.04,	3.584321e-08,	1262.27,	2.135797e-10,	1262.41,	7.276794e-11,	1261.97,	2.213672e-09
702.027,	1.153558,	-0.0005654567,	2,	1295.54,	3.662784e-12,	1295.39,	2.142638e-10,	1295.31,	3.833777e-09,	1295.24,	3.598154e-08,	1295.46,	2.171111e-10,	1295.61,	6.443642e-11,	1295.16,	2.244187e-09
711.615,	0.9619694,	-0.002088521,	2,	1328.73,	3.464039e-12,	1328.59,	2.157561e-10,	1328.51,	3.858969e-09,	1328.44,	3.640983e-08,	1328.66,	2.160449e-10,	1328.81,	7.186353e-11,	1328.36,	2.240256e-09
721.111,	0.7718667,	-0.01037262,	2,	1361.93,	3.524651e-12,	1361.78,	2.210624e-10,	1361.71,	3.793248e-09,	1361.63,	3.548534e-08,	1361.86,	6.975354e-10,	1362.01,	1.068055e-10,	1361.56,	2.167125e-09
730.708,	0.5799264,	-0.003863139,	2,	1395.13,	3.423617e-12,	1394.98,	2.147339e-10,	1394.91,	3.838349e-09,	1394.83,	3.618413e-08,	1395.06,	2.289179e-10,	1395.2,	8.134494e-11,	1394.76,	2.212858e-09
740.345,	0.3871456,	-0.002894332,	2,	1428.33,	3.448277e-12,	1428.18,	2.135687e-10,	1428.1,	3.836002e-09,	1428.03,	3.6292e-08,	1428.25,	2.156934e-10,	1428.4,	7.383406e-11,	1427.95,	2.224512e-09
749.885,	0.1963781,	-0.009793928,	2,	1461.52,	3.404555e-12,	1461.37,	2.156294e-10,	1461.3,	3.83458e-09,	1461.22,	3.596557e-08,	1461.45,	2.13549e-10,	1461.6,	6.56605e-11,	1461.15,	2.236769e-09
759.616,	0.09929813,	0.006292149,	2,	1494.72,	3.474624e-12,	1494.57,	2.113446e-10,	1494.5,	3.830884e-09,	1494.42,	3.597527e-08,	1494.65,	2.100468e-10,	1494.8,	7.035315e-11,	1494.35,	2.221595e-09
769.224,	0.2915135,	0.00327694,	2,	1527.91,	3.529497e-12,	1527.77,	2.239795e-10,	1527.69,	3.784952e-09,	1527.62,	3.570766e-08,	1527.84,	7.06618e-10,	1527.99,	1.027883e-10,	1527.54,	2.195954e-09
778.82,	0.4833965,	0.0001571398,	2,	1561.11,	3.317432e-12,	1560.96,	2.151219e-10,	1560.89,	3.784116e-09,	1560.82,	3.579524e-08,	1561.04,	2.346947e-10,	1561.19,	8.232232e-11,	1560.74,	2.19982e-09
788.337,	0.6737972,	0.0004674785,	2,	1594.31,	3.400432e-12,	1594.16,	2.144636e-10,	1594.09,	3.784106e-09,	1594.01,	3.602014e-08,	1594.23,	2.128618e-10,	1594.38,	7.395486e-11,	1593.94,	2.218241e-09
797.904,	0.8651111,	0.001187403,	2,	1627.51,	3.409577e-12,	1627.36,	2.149198e-10,	1627.28,	3.781068e-09,	1627.21,	3.623608e-08,	1627.43,	2.129428e-10,	1627.58,	6.589312e-11,	1627.13,	2.401239e-09
807.428,	1.055573,	0.003503682,	3,	1660.71,	3.507714e-12,	1660.56,	2.105564e-10,	1660.48,	3.795339e-09,	1660.41,	3.581215e-08,	1660.63,	2.10773e-10,	1660.78,	6.409818e-11,	1660.33,	2.240233e-09
816.901,	1.245064,	0.006698682,	3,	1693.9,	3.465678e-12,	1693.75,	2.117522e-10,	1693.68,	3.773753e-09,	1693.6,	3.59546e-08,	1693.83,	2.116551e-10,	1693.98,	5.915234e-11,	1693.53,	2.221104e-09
826.464,	1.436397,	0.01117817,	3,	1727.1,	3.29444e-12,	1726.95,	2.121541e-10,	1726.88,	3.822008e-09,	1726.8,	3.580823e-08,	1727.03,	2.112885e-10,	1727.17,	5.70259e-11,	1726.73,	2.221609e-09
836.148,	1.630137,	0.02489873,	3,	1760.3,	3.365279e-12,	1760.15,	2.126906e-10,	1760.07,	3.768974e-09,	1760,	3.604388e-08,	1760.22,	2.087379e-10,	1760.37,	5.704017e-11,	1759.92,	2.2243e-09
845.824,	1.577618,	0.003946096,	3,	1793.49,	3.630721e-12,	1793.34,	2.102755e-10,	1793.27,	3.774892e-09,	1793.19,	3.610587e-08,	1793.42,	2.09346e-10,	1793.57,	5.748054e-11,	1793.12,	2.227732e-09
855.463,	1.38481,	0.0004861828,	3,	1826.69,	3.232609e-12,	1826.54,	2.084581e-10,	1826.47,	3.773048e-09,	1826.39,	3.582223e-08,	1826.62,	2.103653e-10,	1826.76,	5.786904e-11,	1826.32,	2.224326e-09
865.099,	1.191965,	-0.0002646611,	3,	1859.89,	3.379917e-12,	1859.74,	2.103869e-10,	1859.66,	3.789558e-09,	1859.59,	3.600382e-08,	1859.81,	2.094489e-10,	1859.96,	5.732866e-11,	1859.51,	2.240056e-09
874.722,	0.9994475,	-0.001483876,	3,	1893.08,	3.400396e-12,	1892.93,	2.107711e-10,	1892.86,	3.767207e-09,	1892.79,	3.585858e-08,	1893.01,	2.074488e-10,	1893.16,	5.771687e-11,	1892.71,	2.230752e-09
884.375,	0.8062808,	-0.00815711,	3,	1926.28,	3.393211e-12,	1926.13,	2.07411e-10,	1926.06,	3.757209e-09,	1925.98,	3.587535e-08,	1926.2,	2.083331e-10,	1926.35,	5.671278e-11,	1925.91,	2.226574e-09
893.898,	0.6159374,	-0.005016698,	3,	1959.48,	3.461994e-12,	1959.33,	2.081698e-10,	1959.25,	3.749956e-09,	1959.18,	3.59378e-08,	1959.4,	2.077529e-10,	1959.55,	5.649469e-11,	1959.11,	2.219524e-09
903.494,	0.4240276,	-0.001746881,	3,	1992.67,	3.281045e-12,	1992.53,	2.09597e-10,	1992.45,	3.752708e-09,	1992.38,	3.58156e-08,	1992.6,	2.078754e-10,	1992.75,	5.62052e-11,	1992.3,	2.216522e-09
913.193,	0.2299785,	-0.005564466,	3,	2025.87,	3.338214e-12,	2025.72,	2.085537e-10,	2025.65,	3.739317e-09,	2025.57,	3.555651e-08,	2025.8,	2.081648e-10,	2025.94,	5.677843e-11,	2025.5,	2.246933e-09
922.829,	0.03725114,	-0.02990219,	3,	2059.07,	3.417169e-12,	2058.92,	2.093874e-10,	2058.85,	3.758366e-09,	2058.77,	3.565983e-08,	2058.99,	2.087329e-10,	2059.14,	5.50064e-11,	2058.7,	2.295023e-09
932.441,	0.05612388,	0.06270392,	3,	2092.27,	3.565795e-12,	2092.12,	2.076972e-10,	2092.04,	3.74664e-09,	2091.97,	3.58248e-08,	2092.19,	2.062776e-10,	2092.34,	5.665394e-11,	2091.89,	2.329364e-09
941.819,	0.2438121,	0.009788325,	3,	2125.46,	3.500787e-12,	2125.31,	2.062112e-10,	2125.24,	3.719586e-09,	2125.16,	3.564274e-08,	2125.39,	2.069818e-10,	2125.54,	5.581071e-11,	2125.09,	2.359661e-09
951.388,	0.4350915,	0.001619129,	3,	2158.66,	3.552752e-12,	2158.51,	2.093113e-10,	2158.44,	3.767757e-09,	2158.36,	3.559773e-08,	2158.59,	2.067871e-10,	2158.73,	5.778751e-11,	2158.29,	2.37976e-09
961.068,	0.6288924,	0.0009820375,	3,	2191.86,	3.670081e-12,	2191.71,	2.075576e-10,	2191.63,	3.73746e-09,	2191.56,	3.547682e-08,	2191.78,	2.0711e-10,	2191.93,	5.586538e-11,	2191.48,	2.396691e-09
970.663,	0.8207295,	0.001343908,	3,	2225.05,	3.519951e-12,	2224.9,	2.08186e-10,	2224.83,	3.768284e-09,	2224.76,	3.575229e-08,	2224.98,	2.07142e-10,	2225.13,	5.549338e-11,	2224.68,	2.278865e-09
980.306,	1.013579,	0.003436881,	4,	2258.25,	3.324499e-12,	2258.1,	2.08361e-10,	2258.03,	3.729362e-09,	2257.95,	3.563727e-08,	2258.18,	2.070381e-10,	2258.33,	5.563316e-11,	2257.88,	2.228825e-09
990.026,	1.207922,	0.001837091,	4,	2291.45,	3.380542e-12,	2291.3,	2.075384e-10,	2291.22,	3.713475e-09,	2291.15,	3.593417e-08,	2291.37,	2.080256e-10,	2291.52,	5.600522e-11,	2291.08,	2.225324e-09
999.645,	1.40034,	0.009529901,	4,	2324.64,	3.183051e-12,	2324.5,	2.068729e-10,	2324.42,	3.705069e-09,	2324.35,	3.589411e-08,	2324.57,	2.072529e-10,	2324.72,	5.562692e-11,	2324.27,	2.220143e-09
1009.27,	1.592598,	0.01850415,	4,	2357.84,	3.479883e-12,	2357.69,	2.084735e-10,	2357.62,	3.733698e-09,	2357.54,	3.53308e-08,	2357.77,	2.05786e-10,	2357.92,	5.611655e-11,	2357.47,	2.229671e-09
1018.9,	1.615719,	0.007156364,	4,	2391.04,	3.626598e-12,	2390.89,	2.085172e-10,	2390.82,	3.716822e-09,	2390.74,	3.530955e-08,	2390.96,	2.065759e-10,	2391.11,	5.4824e-11,	2390.67,	2.229e-09
1028.32,	1.427056,	0.001014102,	4,	2424.23,	3.643553e-12,	2424.09,	2.081424e-10,	2424.01,	3.693999e-09,	2423.94,	3.575417e-08,	2424.16,	2.060553e-10,	2424.31,	5.616277e-11,	2423.86,	2.239402e-09
1037.85,	1.236453,	-0.001556403,	4,	2457.43,	3.337202e-12,	2457.28,	2.045627e-10,	2457.21,	3.702247e-09,	2457.13,	3.532769e-08,	2457.36,	2.042934e-10,	2457.51,	5.449152e-11,	2457.06,	2.220573e-09
1047.48,	1.043837,	-0.0009609189,	4,	2490.63,	3.518923e-12,	2490.48,	2.077735e-10,	2490.41,	3.704776e-09,	2490.33,	3.573303e-08,	2490.56,	2.056357e-10,	2490.7,	5.561629e-11,	2490.26,	2.229926e-09
1056.97,	0.8539937,	-0.005215955,	4,	2523.83,	3.59959e-12,	2523.68,	2.05443e-10,	2523.6,	3.68106e-09,	2523.53,	3.562849e-08,	2523.75,	2.061464e-10,	2523.9,	5.515451e-11,	2523.45,	2.242215e-09
1066.39,	0.6656827,	-0.01104024,	4,	2557.02,	3.483297e-12,	2556.87,	2.051797e-10,	2556.8,	3.706712e-09,	2556.72,	3.59123e-08,	2556.95,	2.038367e-10,	2557.1,	5.449785e-11,	2556.65,	3.402918e-09
1076.03,	0.4728446,	-0.001452193,	4,	2590.22,	3.516967e-12,	2590.07,	2.075509e-10,	2590,	3.711182e-09,	2589.92,	3.552569e-08,	2590.14,	2.025477e-10,	2590.29,	5.569011e-11,	2589.85,	3.535204e-09
1085.64,	0.28074,	-0.004255547,	4,	2623.42,	3.389821e-12,	2623.27,	2.071304e-10,	2623.19,	3.683918e-09,	2623.12,	3.536872e-08,	2623.34,	2.012347e-10,	2623.49,	5.368954e-11,	2623.05,	3.550771e-09
1095.32,	0.0870576,	-0.01460093,	4,	2656.62,	3.57685e-12,	2656.47,	2.053556e-10,	2656.39,	3.708275e-09,	2656.32,	3.517476e-08,	2656.54,	2.029406e-10,	2656.69,	5.468336e-11,	2656.24,	3.564199e-09
1104.85,	0.1047231,	0.008981751,	4,	2689.81,	3.508271e-12,	2689.66,	2.067378e-10,	2689.59,	3.682039e-09,	2689.51,	3.553449e-08,	2689.74,	2.028768e-10,	2689.89,	5.485667e-11,	2689.44,	3.574289e-09
1114.22,	0.292121,	0.003718972,	4,	2723.01,	3.316027e-12,	2722.86,	2.051564e-10,	2722.79,	3.710563e-09,	2722.71,	3.556421e-08,	2722.93,	2.025399e-10,	2723.08,	5.504609e-11,	2722.64,	3.604359e-09
1123.66,	0.4810279,	0.0003789194,	4,	2756.2,	3.497371e-12,	2756.06,	2.059622e-10,	2755.98,	3.711848e-09,	2755.91,	3.561422e-08,	2756.13,	2.03525e-10,	2756.28,	5.431882e-11,	2755.83,	3.597461e-09
1133.01,	0.6681545,	0.0004865645,	4,	2789.4,	3.732403e-12,	2789.25,	2.056183e-10,	2789.18,	3.663332e-09,	2789.11,	3.552342e-08,	2789.33,	2.049692e-10,	2789.48,	5.460182e-11,	2789.03,	3.595942e-09
1142.56,	0.8590634,	0.001419871,	4,	2822.6,	3.621076e-12,	2822.45,	2.047107e-10,	2822.38,	3.710295e-09,	2822.3,	3.551317e-08,	2822.53,	2.032099e-10,	2822.67,	5.413997e-11,	2822.23,	2.477245e-09
1152.08,	1.049204,	0.003849139,	5,	2855.8,	3.407149e-12,	2855.65,	2.042312e-10,	2855.57,	3.672375e-09,	2855.5,	3.574205e-08,	2855.72,	2.023989e-10,	2855.87,	5.404816e-11,	2855.42,	2.256496e-09
1161.84,	1.244487,	0.006791821,	5,	2888.99,	3.407669e-12,	2888.85,	2.045554e-10,	2888.77,	3.614446e-09,	2888.7,	3.555248e-08,	2888.92,	2.016429e-10,	2889.07,	5.331136e-11,	2888.62,	2.240518e-09
1171.46,	1.437261,	0.0110167,	5,	2922.19,	3.389906e-12,	2922.04,	2.033145e-10,	2921.97,	3.615295e-09,	2921.89,	3.51278e-08,	2922.12,	2.022674e-10,	2922.26,	5.355093e-11,	2921.82,	2.220005e-09
1181.25,	1.632784,	0.02714935,	5,	2955.39,	3.453076e-12,	2955.24,	2.023199e-10,	2955.16,	3.639784e-09,	2955.09,	3.536772e-08,	2955.31,	2.021601e-10,	2955.46,	5.421104e-11,	2955.02,	2.230117e-09
1190.89,	1.575211,	0.004014424,	5,	2988.59,	3.757758e-12,	2988.44,	2.037133e-10,	2988.36,	3.63404e-09,	2988.29,	3.530439e-08,	2988.51,	2.03504e-10,	2988.66,	5.380714e-11,	2988.21,	2.227994e-09
1200.63,	1.380302,	-0.001157505,	5,	3021.78,	3.287249e-12,	3021.63,	2.025209e-10,	3021.56,	3.630903e-09,	3021.48,	3.544457e-08,	3021.71,	1.992877e-10,	3021.86,	5.381346e-11,	3021.41,	2.22492e-09
1210.27,	1.187797,	-0.0002509192,	5,	3054.98,	3.378645e-12,	3054.83,	2.007054e-10,	3054.76,	3.648452e-09,	3054.68,	3.520183e-08,	3054.9,	1.994838e-10,	3055.05,	5.335249e-11,	3054.61,	2.230095e-09
1219.9,	0.9950119,	-0.001443413,	5,	3088.17,	3.421784e-12,	3088.03,	2.014269e-10,	3087.95,	3.616471e-09,	3087.88,	3.530629e-08,	3088.1,	1.987278e-10,	3088.25,	5.414773e-11,	3087.8,	2.225391e-09
1229.53,	0.802426,	-0.008949563,	5,	3121.37,	3.3092e-12,	3121.22,	2.016467e-10,	3121.15,	3.619248e-09,	3121.08,	3.522052e-08,	3121.3,	1.985715e-10,	3121.45,	5.311125e-11,	3121.0,	3.008159e-09
1239.15,	0.6099356,	-0.004249058,	5,	3154.57,	3.194823e-12,	3154.42,	2.026731e-10,	3154.35,	3.666475e-09,	3154.27,	3.501632e-08,	3154.5,	1.998933e-10,	3154.64,	5.348974e-11,	3154.2,	5.003291e-09
1248.75,	0.4180258,	-0.001513268,	5,	3187.77,	3.334788e-12,	3187.62,	2.039579e-10,	3187.54,	3.695512e-09,	3187.47,	3.575591e-08,	3187.69,	2.017973e-10,	3187.84,	5.39979e-11,	3187.39,	5.054842e-09
1258.37,	0.2257913,	-0.004836907,	5,	3220.96,	3.043114e-12,	3220.82,	2.027289e-10,	3220.74,	3.672679e-09,	3220.67,	3.537306e-08,	3220.89,	1.996009e-10,	3221.04,	5.291052e-11,	3220.59,	5.059098e-09
1268.04,	0.03241835,	-0.0319005,	5,	3254.16,	3.250429e-12,	3254.01,	2.022928e-10,	3253.94,	3.648955e-09,	3253.86,	3.528674e-08,	3254.09,	1.98476e-10,	3254.23,	5.373378e-11,	3253.79,	5.078751e-09
1277.57,	0.1595572,	0.00736402,	5,	3287.36,	3.263701e-12,	3287.21,	1.978772e-10,	3287.13,	3.620764e-09,	3287.06,	3.535565e-08,	3287.28,	1.975509e-10,	3287.43,	5.37758e-11,	3286.98,	5.080858e-09
1287.29,	0.3540839,	0.002489451,	5,	3320.56,	3.142292e-12,	3320.41,	1.990419e-10,	3320.33,	3.613253e-09,	3320.26,	3.503547e-08,	3320.48,	1.969699e-10,	3320.63,	5.236608e-11,	3320.18,	5.075347e-09
1296.88,	0.5457873,	0.0003556344,	5,	3353.75,	3.191459e-12,	3353.6,	2.010049e-10,	3353.53,	3.609777e-09,	3353.45,	3.505552e-08,	3353.68,	2.015255e-10,	3353.83,	5.228755e-11,	3353.38,	5.085536e-09
1306.48,	0.7379416,	0.002854376,	5,	3386.95,	3.166483e-12,	3386.8,	2.001738e-10,	3386.73,	3.604955e-09,	3386.65,	3.549707e-08,	3386.875,	2.00786e-10,	3387.02,	5.310183e-11,	3386.58,	5.074676e-09
1316.13,	0.9308218,	0.00237608,	6,	3420.15,	3.576868e-12,	3420,	1.999986e-10,	3419.92,	3.595881e-09,	3419.85,	3.534377e-08,	3420.07,	1.966389e-10,	3420.22,	5.289173e-11,	3419.77,	2.861313e-09
1325.72,	1.122689,	0.00533594,	6,	3453.34,	3.160584e-12,	3453.19,	2.029667e-10,	3453.12,	3.60941e-09,	3453.05,	3.51304e-08,	3453.27,	1.977073e-10,	3453.42,	5.213848e-11,	3452.97,	2.274664e-09
1335.21,	1.312567,	0.008133186,	6,	3486.54,	3.244737e-12,	3486.39,	2.019103e-10,	3486.32,	3.593047e-09,	3486.24,	3.498119e-08,	3486.46,	1.968579e-10,	3486.61,	5.248894e-11,	3486.17,	2.255027e-09
1344.91,	1.506555,	0.01254664,	6,	3519.74,	3.237216e-12,	3519.59,	1.986324e-10,	3519.51,	3.598469e-09,	3519.44,	3.50027e-08,	3519.66,	1.991767e-10,	3519.81,	5.23633e-11,	3519.37,	2.236474e-09
1354.45,	1.697567,	0.06784265,	6,	3552.93,	3.469667e-12,	3552.79,	1.978232e-10,	3552.71,	3.604265e-09,	3552.64,	3.550123e-08,	3552.86,	1.959347e-10,	3553.01,	5.253013e-11,	3552.56,	2.232045e-09
1364.08,	1.511063,	0.001626763,	6,	3586.13,	3.381616e-12,	3585.98,	1.985574e-10,	3585.91,	3.591923e-09,	3585.83,	3.558122e-08,	3586.06,	1.942198e-10,	3586.2,	5.168426e-11,	3585.76,	2.227544e-09
1373.68,	1.318886,	-0.001983166,	6,	3619.33,	3.309632e-12,	3619.18,	1.953878e-10,	3619.1,	3.575888e-09,	3619.03,	3.541025e-08,	3619.25,	1.983847e-10,	3619.4,	5.215336e-11,	3618.95,	2.210301e-09
1383.23,	1.128049,	-0.0006368384,	6,	3652.53,	3.128638e-12,	3652.38,	1.968873e-10,	3652.3,	3.58311e-09,	3652.23,	3.504966e-08,	3652.45,	1.969569e-10,	3652.6,	5.240332e-11,	3652.15,	2.230337e-09
1392.78,	0.9370719,	-0.002526736,	6,	3685.72,	3.123328e-12,	3685.57,	1.970807e-10,	3685.5,	3.535244e-09,	3685.42,	3.496277e-08,	3685.65,	1.962715e-10,	3685.8,	5.266357e-11,	3685.35,	2.217039e-09
1402.46,	0.7433322,	-0.02072296,	6,	3718.92,	3.555405e-12,	3718.77,	1.980506e-10,	3718.69,	3.534474e-09,	3718.62,	3.507375e-08,	3718.84,	1.951802e-10,	3718.99,	5.275941e-11,	3718.55,	3.673517e-09
1411.96,	0.5532524,	-0.001758714,	6,	3752.12,	3.16934e-12,	3751.97,	1.98204e-10,	3751.89,	3.635089e-09,	3751.82,	3.567583e-08,	3752.04,	1.973613e-10,	3752.19,	5.309763e-11,	3751.74,	6.449985e-09
1421.67,	0.3589511,	-0.003793284,	6,	3785.31,	3.356332e-12,	3785.16,	1.976091e-10,	3785.09,	3.608946e-09,	3785.02,	3.517494e-08,	3785.24,	1.978035e-10,	3785.39,	5.233971e-11,	3784.94,	6.528478e-09
1431.3,	0.1665027,	-0.007819669,	6,	3818.51,	3.149228e-12,	3818.36,	1.986286e-10,	3818.29,	3.604245e-09,	3818.21,	3.553531e-08,	3818.43,	1.956141e-10,	3818.58,	5.249481e-11,	3818.14,	6.565873e-09
1440.82,	0.02521309,	0.04657166,	6,	3851.71,	3.153061e-12,	3851.56,	2.000519e-10,	3851.48,	3.618923e-09,	3851.41,	3.570129e-08,	3851.63,	1.969907e-10,	3851.78,	5.242676e-11,	3851.33,	6.571009e-09
1450.45,	0.2176692,	0.006139461,	6,	3884.9,	3.30524e-12,	3884.76,	1.966698e-10,	3884.68,	3.5882e-09,	3884.61,	3.501748e-08,	3884.83,	1.924641e-10,	3884.98,	5.23032e-11,	3884.53,	6.57479e-09
1460.08,	0.4105493,	0.0006026075,	6,	3918.1,	3.295127e-12,	3917.95,	1.978493e-10,	3917.88,	3.566083e-09,	3917.8,	3.521391e-08,	3918.03,	1.939318e-10,	3918.17,	5.233424e-11,	3917.73,	6.55961e-09
1469.68,	0.6024285,	0.0004651881,	6,	3951.3,	3.117515e-12,	3951.15,	1.9499e-10,	3951.07,	3.593515e-09,	3951,	3.521302e-08,	3951.22,	1.938047e-10,	3951.37,	5.152983e-11,	3950.92,	6.559317e-09
1479.32,	0.7952131,	0.002377607,	6,	3984.49,	3.090469e-12,	3984.35,	1.916795e-10,	3984.27,	3.537174e-09,	3984.2,	3.480026e-08,	3984.42,	1.926853e-10,	3984.57,	5.133682e-11,	3984.12,	6.529109e-09
1489.07,	0.9901525,	0.00423544,	7,	4017.69,	3.25748e-12,	4017.54,	1.958443e-10,	4017.47,	3.615434e-09,	4017.39,	3.507756e-08,	4017.62,	1.97043e-10,	4017.77,	5.265981e-11,	4017.32,	3.656962e-09
1498.67,	1.182116,	0.006305892,	7,	4050.89,	3.21524e-12,	4050.74,	1.93447e-10,	4050.66,	3.541581e-09,	4050.59,	3.50615e-08,	4050.81,	1.944697e-10,	4050.96,	5.077407e-11,	4050.52,	2.308738e-09
1508.25,	1.373701,	0.009314229,	7,	4084.09,	3.19948e-12,	4083.94,	1.920604e-10,	4083.86,	3.534331e-09,	4083.79,	3.500438e-08,	4084.01,	1.940598e-10,	4084.16,	5.176952e-11,	4083.71,	2.267441e-09
1517.92,	1.567154,	0.01674289,	7,	4117.28,	3.126479e-12,	4117.13,	1.935169e-10,	4117.06,	3.519855e-09,	4116.98,	3.491434e-08,	4117.21,	1.930758e-10,	4117.36,	5.143196e-11,	4116.91,	2.236292e-09
1527.46,	1.643061,	0.01405749,	7,	4150.48,	3.373239e-12,	4150.33,	1.92874e-10,	4150.26,	3.527331e-09,	4150.18,	3.498559e-08,	4150.4,	1.921723e-10,	4150.55,	5.126901e-11,	4150.11,	2.228042e-09
1536.97,	1.452508,	0.0001888226,	7,	4183.68,	3.145247e-12,	4183.53,	1.934485e-10,	4183.45,	3.515132e-09,	4183.38,	3.502522e-08,	4183.6,	1.931638e-10,	4183.75,	5.08941e-11,	4183.3,	2.236227e-09
1546.65,	1.259162,	0.0001025538,	7,	4216.87,	3.075702e-12,	4216.72,	1.932734e-10,	4216.65,	3.518874e-09,	4216.58,	3.486588e-08,	4216.8,	1.92063e-10,	4216.95,	5.073788e-11,	4216.5,	2.225518e-09
1556.39,	1.064211,	-0.001429672,	7,	4250.07,	3.20448e-12,	4249.92,	1.925336e-10,	4249.85,	3.54323e-09,	4249.77,	3.501959e-08,	4249.99,	1.905854e-10,	4250.14,	5.054798e-11,	4249.7,	2.230161e-09
1565.88,	0.8747346,	-0.004481907,	7,	4283.27,	3.33867e-12,	4283.12,	1.932015e-10,	4283.04,	3.523011e-09,	4282.97,	3.508459e-08,	4283.19,	1.902949e-10,	4283.34,	5.069757e-11,	4282.89,	2.225601e-09
1575.37,	0.6846204,	-0.01867885,	7,	4316.46,	3.113157e-12,	4316.32,	1.931186e-10,	4316.24,	3.517077e-09,	4316.17,	3.489895e-08,	4316.39,	1.931411e-10,	4316.54,	5.096633e-11,	4316.09,	3.519032e-09
1584.93,	0.4934976,	-0.001406387,	7,	4349.66,	3.320816e-12,	4349.51,	1.934592e-10,	4349.44,	3.604021e-09,	4349.36,	3.489435e-08,	4349.59,	1.920072e-10,	4349.74,	5.171365e-11,	4349.29,	7.873842e-09
1594.5,	0.3020158,	-0.004723918,	7,	4382.86,	3.403749e-12,	4382.71,	1.937877e-10,	4382.64,	3.56168e-09,	4382.56,	3.496636e-08,	4382.79,	1.954194e-10,	4382.93,	5.141807e-11,	4382.49,	7.97668e-09
1604.1,	0.1100602,	-0.01255453,	7,	4416.06,	3.214406e-12,	4415.91,	1.946436e-10,	4415.83,	3.552086e-09,	4415.76,	3.496627e-08,	4415.98,	1.900236e-10,	4416.13,	5.0758e-11,	4415.68,	7.951397e-09
1613.8,	0.03120729,	1.894388e-06,	8,	4449.25,	3.117375e-12,	4449.1,	1.938539e-10,	4449.03,	3.586731e-09,	4448.95,	3.498588e-08,	4449.18,	1.924818e-10,	4449.33,	5.145965e-11,	4448.88,	8.001213e-09
1623.43,	0.0603607,	2.199552e-06,	8,	4482.45,	3.29091e-12,	4482.3,	1.939207e-10,	4482.23,	3.58807e-09,	4482.15,	3.506468e-08,	4482.38,	1.925914e-10,	4482.53,	5.055714e-11,	4482.08,	7.996102e-09
1633.01,	0.07747223,	1.856242e-06,	8,	4515.64,	3.211745e-12,	4515.5,	1.927671e-10,	4515.42,	3.573372e-09,	4515.35,	3.472678e-08,	4515.57,	1.902453e-10,	4515.72,	5.133741e-11,	4515.27,	7.987079e-09
1642.54,	0.08965547,	1.970679e-06,	8,	4548.84,	3.057024e-12,	4548.69,	1.906714e-10,	4548.62,	3.572366e-09,	4548.55,	3.518882e-08,	4548.77,	1.927417e-10,	4548.92,	5.171707e-11,	4548.47,	8.005657e-09
1652.13,	0.1000469,	2.161406e-06,	8,	4582.04,	3.449407e-12,	4581.89,	1.918323e-10,	4581.82,	3.516672e-09,	4581.74,	3.460836e-08,	4581.97,	1.92098e-10,	4582.12,	5.108601e-11,	4581.67,	8.009314e-09
1661.78,	0.1093343,	2.313988e-06,	8,	4615.24,	3.483657e-12,	4615.09,	1.915951e-10,	4615.01,	3.553398e-09,	4614.94,	3.506921e-08,	4615.16,	1.917671e-10,	4615.31,	5.043e-11,	4614.87,	5.35246e-09
1671.48,	0.1181365,	2.199552e-06,	8,	4648.43,	3.067438e-12,	4648.29,	1.919639e-10,	4648.21,	3.485241e-09,	4648.14,	3.459948e-08,	4648.36,	1.888988e-10,	4648.51,	4.950276e-11,	4648.06,	2.357317e-09
1681.23,	0.1266445,	2.161406e-06,	8,	4681.63,	3.048763e-12,	4681.48,	1.902173e-10,	4681.41,	3.525146e-09,	4681.33,	3.548666e-08,	4681.56,	1.894361e-10,	4681.7,	4.942375e-11,	4681.26,	2.278876e-09
1690.76,	0.1349118,	2.46657e-06,	8,	4714.83,	3.12735e-12,	4714.68,	1.900783e-10,	4714.61,	3.477848e-09,	4714.53,	3.479342e-08,	4714.75,	1.899634e-10,	4714.9,	4.960616e-11,	4714.46,	2.256991e-09
1700.29,	0.1434733,	1.512933e-06,	8,	4748.03,	2.949205e-12,	4747.88,	1.828689e-10,	4747.8,	3.493638e-09,	4747.73,	3.489055e-08,	4747.95,	1.873695e-10,	4748.1,	5.018861e-11,	4747.65,	2.23768e-09
1709.98,	0.152413,	1.20777e-06,	8,	4781.22,	2.729955e-12,	4781.07,	1.812948e-10,	4781,	3.499802e-09,	4780.92,	3.502196e-08,	4781.15,	1.880586e-10,	4781.3,	5.023446e-11,	4780.85,	2.231493e-09
1719.46,	0.1614292,	2.313988e-06,	8,	4814.42,	3.207145e-12,	4814.27,	1.815617e-10,	4814.2,	3.47306e-09,	4814.12,	3.474053e-08,	4814.35,	1.844176e-10,	4814.49,	4.863006e-11,	4814.05,	2.217913e-09
1728.94,	0.1708503,	1.856243e-06,	8,	4847.62,	2.817749e-12,	4847.47,	1.780803e-10,	4847.39,	3.477359e-09,	4847.32,	3.467944e-08,	4847.54,	1.846534e-10,	4847.69,	4.982845e-11,	4847.24,	2.22343e-09
1738.62,	0.1804929,	1.818097e-06,	8,	4880.81,	2.928376e-12,	4880.66,	1.780334e-10,	4880.59,	3.448877e-09,	4880.52,	3.461875e-08,	4880.74,	1.846138e-10,	4880.89,	4.928328e-11,	4880.44,	2.229272e-09
1748.28,	0.1904068,	2.12326e-06,	8,	4914.01,	3.158634e-12,	4913.86,	1.780243e-10,	4913.79,	3.461844e-09,	4913.71,	3.484425e-08,	4913.93,	1.833262e-10,	4914.08,	4.836291e-11,	4913.64,	2.228131e-09
1757.88,	0.2003055,	1.932533e-06,	8,	4947.21,	2.763661e-12,	4947.06,	1.760428e-10,	4946.98,	3.472021e-09,	4946.91,	3.48105e-08,	4947.13,	1.818485e-10,	4947.28,	4.854817e-11,	4946.84,	2.221228e-09
1767.49,	0.2102385,	2.161406e-06,	8,	4980.4,	3.032113e-12,	4980.26,	1.787097e-10,	4980.18,	3.489075e-09,	4980.11,	3.512171e-08,	4980.33,	1.834214e-10,	4980.48,	4.928412e-11,	4980.03,	2.222991e-09
1776.96,	0.2199346,	2.008824e-06,	8,	,	,	,	,	,	,	,	,	,	,	,	,	,
1786.64,	0.2295391,	2.390279e-06,	8,	,	,	,	,	,	,	,	,	,	,	,	,	,
1796.25,	0.2384865,	2.123261e-06,	8,	,	,	,	,	,	,	,	,	,	,	,	,	,
1805.8,	0.2469219,	1.360352e-06,	8,	,	,	,	,	,	,	,	,	,	,	,	,	,
1815.38,	0.2550288,	2.275842e-06,	8,	,	,	,	,	,	,	,	,	,	,	,	,	,
1825.01,	0.2633305,	2.390279e-06,	8,	,	,	,	,	,	,	,	,	,	,	,	,	,
1834.61,	0.2722435,	1.932533e-06,	8,	,	,	,	,	,	,	,	,	,	,	,	,	,
1844.18,	0.2824057,	1.62737e-06,	8,	,	,	,	,	,	,	,	,	,	,	,	,	,
1853.77,	0.2946539,	1.62737e-06,	8,	,	,	,	,	,	,	,	,	,	,	,	,	,
1863.37,	0.3102564,	2.390279e-06,	8,	,	,	,	,	,	,	,	,	,	,	,	,	,
1873.02,	0.3324682,	1.551079e-06,	8,	,	,	,	,	,	,	,	,	,	,	,	,	,
1882.58,	0.3672986,	2.46657e-06,	8,	,	,	,	,	,	,	,	,	,	,	,	,	,
1892.39,	0.4249866,	2.085115e-06,	8,	,	,	,	,	,	,	,	,	,	,	,	,	,
1902.03,	0.4807032,	2.085115e-06,	8,	,	,	,	,	,	,	,	,	,	,	,	,	,
1911.6,	0.384647,	-0.0009978599,	8,	,	,	,	,	,	,	,	,	,	,	,	,	,
1921.23,	0.2722626,	-0.0009977072,	8,	,	,	,	,	,	,	,	,	,	,	,	,	,
1930.85,	0.2329622,	-0.0009972877,	8,	,	,	,	,	,	,	,	,	,	,	,	,	,
1940.43,	0.2021393,	-0.0009977072,	8,	,	,	,	,	,	,	,	,	,	,	,	,	,
1950.1,	0.177429,	-0.0009970206,	8,	,	,	,	,	,	,	,	,	,	,	,	,	,
1959.78,	0.157945,	-0.0009972877,	8,	,	,	,	,	,	,	,	,	,	,	,	,	,
1969.37,	0.1423234,	-0.000997631,	8,	,	,	,	,	,	,	,	,	,	,	,	,	,
1978.93,	0.1292233,	-0.0009974403,	8,	,	,	,	,	,	,	,	,	,	,	,	,	,
1988.38,	0.1180983,	-0.0009980887,	8,	,	,	,	,	,	,	,	,	,	,	,	,	,
1997.96,	0.1080889,	-0.0009980125,	8,	,	,	,	,	,	,	,	,	,	,	,	,	,
2007.625,	0.09919116,	-0.0009979743,	8,	,	,	,	,	,	,	,	,	,	,	,	,	,
2017.23,	0.09140521,	-0.0009975547,	8,	,	,	,	,	,	,	,	,	,	,	,	,	,
2026.83,	0.0847539,	-0.0009969826,	8,	,	,	,	,	,	,	,	,	,	,	,	,	,
2036.39,	0.07921816,	-0.0009977454,	8,	,	,	,	,	,	,	,	,	,	,	,	,	,
2045.95,	0.07479032,	-0.0009975546,	8,	,	,	,	,	,	,	,	,	,	,	,	,	,
2055.61,	0.07122207,	-0.0009974403,	8,	,	,	,	,	,	,	,	,	,	,	,	,	,
2065.26,	0.06845611,	-0.0009974403,	8,	,	,	,	,	,	,	,	,	,	,	,	,	,
2074.95,	0.06630523,	-0.0009975546,	8,	,	,	,	,	,	,	,	,	,	,	,	,	,
2084.5,	0.0646701,	-0.0009973258,	8,	,	,	,	,	,	,	,	,	,	,	,	,	,
2094.09,	0.06343994,	-0.0009975166,	8,	,	,	,	,	,	,	,	,	,	,	,	,	,
2103.63,	0.06248102,	-0.0009972113,	8,	,	,	,	,	,	,	,	,	,	,	,	,	,
2113.11,	0.06167873,	-0.0009975928,	8,	,	,	,	,	,	,	,	,	,	,	,	,	,
2122.71,	0.06109803,	-0.0009976692,	8,	,	,	,	,	,	,	,	,	,	,	,	,	,
2132.41,	0.06058228,	-0.0009978217,	8,	,	,	,	,	,	,	,	,	,	,	,	,	,
2142.11,	0.06018878,	-0.0009975547,	8,	,	,	,	,	,	,	,	,	,	,	,	,	,
2151.57,	0.05986787,	-0.0009975166,	8,	,	,	,	,	,	,	,	,	,	,	,	,	,
2161.18,	0.05954313,	-0.0009978217,	8,	,	,	,	,	,	,	,	,	,	,	,	,	,
2170.79,	0.05935594,	-0.0009977836,	8,	,	,	,	,	,	,	,	,	,	,	,	,	,
2180.37,	0.0591802,	-0.0009973639,	8,	,	,	,	,	,	,	,	,	,	,	,	,	,
2189.98,	0.05894333,	-0.0009977836,	8,	,	,	,	,	,	,	,	,	,	,	,	,	,
2199.76,	0.05881344,	-0.0009980125,	8,	,	,	,	,	,	,	,	,	,	,	,	,	,
2209.27,	0.05862242,	-0.0009975928,	8,	,	,	,	,	,	,	,	,	,	,	,	,	,
2218.8,	0.07455727,	2.199551e-06,	8,	,	,	,	,	,	,	,	,	,	,	,	,	,
2228.41,	0.08536516,	2.085115e-06,	8,	,	,	,	,	,	,	,	,	,	,	,	,	,
2237.92,	0.09393812,	2.428424e-06,	8,	,	,	,	,	,	,	,	,	,	,	,	,	,
2247.51,	0.101514,	2.352133e-06,	8,	,	,	,	,	,	,	,	,	,	,	,	,	,
2257.28,	0.1087154,	2.390279e-06,	8,	,	,	,	,	,	,	,	,	,	,	,	,	,
2266.86,	0.1153973,	2.581006e-06,	8,	,	,	,	,	,	,	,	,	,	,	,	,	,
2276.5,	0.1218537,	2.428424e-06,	8,	,	,	,	,	,	,	,	,	,	,	,	,	,
2285.94,	0.1281306,	2.352133e-06,	8,	,	,	,	,	,	,	,	,	,	,	,	,	,
2295.54,	0.1344916,	1.779952e-06,	8,	,	,	,	,	,	,	,	,	,	,	,	,	,
2305.1,	0.1408831,	2.237697e-06,	8,	,	,	,	,	,	,	,	,	,	,	,	,	,
2314.73,	0.1474198,	2.046969e-06,	8,	,	,	,	,	,	,	,	,	,	,	,	,	,
2324.24,	0.1540176,	2.275842e-06,	8,	,	,	,	,	,	,	,	,	,	,	,	,	,
2333.77,	0.1607339,	1.932533e-06,	8,	,	,	,	,	,	,	,	,	,	,	,	,	,
2343.39,	0.1676946,	2.352133e-06,	8,	,	,	,	,	,	,	,	,	,	,	,	,	,
2352.88,	0.1748808,	2.04697e-06,	8,	,	,	,	,	,	,	,	,	,	,	,	,	,
2362.47,	0.1821968,	2.085115e-06,	8,	,	,	,	,	,	,	,	,	,	,	,	,	,
2372,	0.1896733,	2.313988e-06,	8,	,	,	,	,	,	,	,	,	,	,	,	,	,
2381.57,	0.1973218,	2.085115e-06,	8,	,	,	,	,	,	,	,	,	,	,	,	,	,
2391.26,	0.2053255,	1.932533e-06,	8,	,	,	,	,	,	,	,	,	,	,	,	,	,
2400.88,	0.2132566,	2.657297e-06,	8,	,	,	,	,	,	,	,	,	,	,	,	,	,
2410.51,	0.2214322,	2.04697e-06,	8,	,	,	,	,	,	,	,	,	,	,	,	,	,
2420.15,	0.2295009,	1.970679e-06,	8,	,	,	,	,	,	,	,	,	,	,	,	,	,
2429.8,	0.237562,	2.313988e-06,	8,	,	,	,	,	,	,	,	,	,	,	,	,	,
2439.51,	0.2456497,	1.894388e-06,	8,	,	,	,	,	,	,	,	,	,	,	,	,	,
2449.03,	0.253386,	2.352133e-06,	8,	,	,	,	,	,	,	,	,	,	,	,	,	,
2458.66,	0.2612942,	1.741806e-06,	8,	,	,	,	,	,	,	,	,	,	,	,	,	,
2468.34,	0.2695119,	2.275842e-06,	8,	,	,	,	,	,	,	,	,	,	,	,	,	,
2477.88,	0.2782644,	1.970679e-06,	8,	,	,	,	,	,	,	,	,	,	,	,	,	,
2487.5,	0.288228,	1.818097e-06,	8,	,	,	,	,	,	,	,	,	,	,	,	,	,
2496.93,	0.2998152,	1.665515e-06,	8,	,	,	,	,	,	,	,	,	,	,	,	,	,
2506.62,	0.3147415,	1.856242e-06,	8,	,	,	,	,	,	,	,	,	,	,	,	,	,
2516.19,	0.1364476,	-0.004998059,	8,	,	,	,	,	,	,	,	,	,	,	,	,	,
2525.86,	0.05780868,	-0.004997907,	8,	,	,	,	,	,	,	,	,	,	,	,	,	,
2535.42,	0.03823299,	-0.004998059,	8,	,	,	,	,	,	,	,	,	,	,	,	,	,
2544.96,	0.03425978,	-0.004997793,	8,	,	,	,	,	,	,	,	,	,	,	,	,	,
2554.56,	0.03302579,	-0.004998289,	8,	,	,	,	,	,	,	,	,	,	,	,	,	,
2564.17,	0.0325024,	-0.004998403,	8,	,	,	,	,	,	,	,	,	,	,	,	,	,
2573.82,	0.03222733,	-0.004998022,	8,	,	,	,	,	,	,	,	,	,	,	,	,	,
2583.4,	0.03207834,	-0.004998289,	8,	,	,	,	,	,	,	,	,	,	,	,	,	,
2592.98,	0.03196372,	-0.004998021,	8,	,	,	,	,	,	,	,	,	,	,	,	,	,
2602.7,	0.03186822,	-0.00499764,	8,	,	,	,	,	,	,	,	,	,	,	,	,	,
2612.28,	0.03179945,	-0.004998326,	8,	,	,	,	,	,	,	,	,	,	,	,	,	,
2621.94,	0.03171922,	-0.00499844,	8,	,	,	,	,	,	,	,	,	,	,	,	,	,
2631.56,	0.0317154,	-0.004998059,	8,	,	,	,	,	,	,	,	,	,	,	,	,	,
2641.28,	0.03170394,	-0.004998365,	8,	,	,	,	,	,	,	,	,	,	,	,	,	,
2650.89,	0.03160843,	-0.004997716,	8,	,	,	,	,	,	,	,	,	,	,	,	,	,
2660.65,	0.03160461,	-0.004998059,	8,	,	,	,	,	,	,	,	,	,	,	,	,	,
2670.36,	0.03156259,	-0.004998136,	8,	,	,	,	,	,	,	,	,	,	,	,	,	,
2680.08,	0.03157404,	-0.004997869,	8,	,	,	,	,	,	,	,	,	,	,	,	,	,
2689.52,	0.03152056,	-0.004998098,	8,	,	,	,	,	,	,	,	,	,	,	,	,	,
2699.11,	0.0315473,	-0.004998174,	8,	,	,	,	,	,	,	,	,	,	,	,	,	,
2708.57,	0.0315282,	-0.004997907,	8,	,	,	,	,	,	,	,	,	,	,	,	,	,
2718.125,	0.03148235,	-0.00499825,	8,	,	,	,	,	,	,	,	,	,	,	,	,	,
2727.57,	0.03148618,	-0.004997869,	8,	,	,	,	,	,	,	,	,	,	,	,	,	,
2737.15,	0.03146325,	-0.004997639,	8,	,	,	,	,	,	,	,	,	,	,	,	,	,
2746.875,	0.0315282,	-0.004998097,	8,	,	,	,	,	,	,	,	,	,	,	,	,	,
2756.42,	0.03145561,	-0.004997564,	8,	,	,	,	,	,	,	,	,	,	,	,	,	,
2765.95,	0.03144797,	-0.004998289,	8,	,	,	,	,	,	,	,	,	,	,	,	,	,
2775.52,	0.03145179,	-0.004998136,	8,	,	,	,	,	,	,	,	,	,	,	,	,	,
2785.13,	0.03142123,	-0.00499764,	8,	,	,	,	,	,	,	,	,	,	,	,	,	,
2794.79,	0.0313792,	-0.004997754,	8,	,	,	,	,	,	,	,	,	,	,	,	,	,
2804.41,	0.03139831,	-0.004998212,	8,	,	,	,	,	,	,	,	,	,	,	,	,	,
2814.09,	0.04596546,	2.199551e-06,	8,	,	,	,	,	,	,	,	,	,	,	,	,	,
2823.72,	0.0634132,	2.46657e-06,	8,	,	,	,	,	,	,	,	,	,	,	,	,	,
2833.31,	0.07341498,	1.779952e-06,	8,	,	,	,	,	,	,	,	,	,	,	,	,	,
2842.94,	0.08060113,	1.894388e-06,	8,	,	,	,	,	,	,	,	,	,	,	,	,	,
2852.59,	0.08658388,	1.856243e-06,	8,	,	,	,	,	,	,	,	,	,	,	,	,	,
2862.2,	0.09199354,	2.085115e-06,	8,	,	,	,	,	,	,	,	,	,	,	,	,	,
2871.78,	0.09701736,	1.932533e-06,	8,	,	,	,	,	,	,	,	,	,	,	,	,	,
2881.4,	0.1018387,	2.199551e-06,	8,	,	,	,	,	,	,	,	,	,	,	,	,	,
2891.04,	0.1065683,	2.085115e-06,	8,	,	,	,	,	,	,	,	,	,	,	,	,	,
2900.5,	0.1110611,	2.352133e-06,	8,	,	,	,	,	,	,	,	,	,	,	,	,	,
2910.05,	0.1155463,	2.199551e-06,	8,	,	,	,	,	,	,	,	,	,	,	,	,	,
2919.65,	0.120062,	1.436642e-06,	8,	,	,	,	,	,	,	,	,	,	,	,	,	,
2929.3,	0.124635,	2.199551e-06,	8,	,	,	,	,	,	,	,	,	,	,	,	,	,
2939.07,	0.1291125,	1.818097e-06,	8,	,	,	,	,	,	,	,	,	,	,	,	,	,
2948.76,	0.1336931,	2.46657e-06,	8,	,	,	,	,	,	,	,	,	,	,	,	,	,
2958.42,	0.1383693,	2.237697e-06,	8,	,	,	,	,	,	,	,	,	,	,	,	,	,
2968.03,	0.1429767,	2.237697e-06,	8,	,	,	,	,	,	,	,	,	,	,	,	,	,
2977.68,	0.1476949,	2.275842e-06,	8,	,	,	,	,	,	,	,	,	,	,	,	,	,
2987.28,	0.1525468,	1.932533e-06,	8,	,	,	,	,	,	,	,	,	,	,	,	,	,
2996.93,	0.1575133,	1.894388e-06,	8,	,	,	,	,	,	,	,	,	,	,	,	,	,
3006.62,	0.1625486,	2.275842e-06,	8,	,	,	,	,	,	,	,	,	,	,	,	,	,
3016.27,	0.1677214,	2.123261e-06,	8,	,	,	,	,	,	,	,	,	,	,	,	,	,
3025.89,	0.1730737,	2.04697e-06,	8,	,	,	,	,	,	,	,	,	,	,	,	,	,
3035.43,	0.178407,	2.237697e-06,	8,	,	,	,	,	,	,	,	,	,	,	,	,	,
3044.98,	0.1839542,	2.504715e-06,	8,	,	,	,	,	,	,	,	,	,	,	,	,	,
3054.65,	0.1896466,	2.352133e-06,	8,	,	,	,	,	,	,	,	,	,	,	,	,	,
3064.33,	0.1955032,	2.504715e-06,	8,	,	,	,	,	,	,	,	,	,	,	,	,	,
3073.98,	0.2015395,	2.008824e-06,	8,	,	,	,	,	,	,	,	,	,	,	,	,	,
3083.44,	0.2074649,	2.46657e-06,	8,	,	,	,	,	,	,	,	,	,	,	,	,	,
3092.92,	0.213482,	2.199551e-06,	8,	,	,	,	,	,	,	,	,	,	,	,	,	,
3102.49,	0.2196749,	2.085115e-06,	8,	,	,	,	,	,	,	,	,	,	,	,	,	,
3112.06,	0.1207496,	-0.009997899,	8,	,	,	,	,	,	,	,	,	,	,	,	,	,
3121.54,	0.02849099,	-0.009998356,	8,	,	,	,	,	,	,	,	,	,	,	,	,	,
3131.23,	0.02342897,	-0.009997975,	8,	,	,	,	,	,	,	,	,	,	,	,	,	,
3140.91,	0.02261522,	-0.009997593,	8,	,	,	,	,	,	,	,	,	,	,	,	,	,
3150.62,	0.02243184,	-0.009997593,	8,	,	,	,	,	,	,	,	,	,	,	,	,	,
3160.19,	0.02235926,	-0.009997517,	8,	,	,	,	,	,	,	,	,	,	,	,	,	,
3169.72,	0.02226757,	-0.009998203,	8,	,	,	,	,	,	,	,	,	,	,	,	,	,
3179.43,	0.02221026,	-0.009997631,	8,	,	,	,	,	,	,	,	,	,	,	,	,	,
3188.95,	0.02216824,	-0.009997899,	8,	,	,	,	,	,	,	,	,	,	,	,	,	,
3198.63,	0.02217206,	-0.009998013,	8,	,	,	,	,	,	,	,	,	,	,	,	,	,
3208.25,	0.02214914,	-0.009997631,	8,	,	,	,	,	,	,	,	,	,	,	,	,	,
3217.86,	0.02213003,	-0.009998432,	8,	,	,	,	,	,	,	,	,	,	,	,	,	,
3227.4,	0.02214532,	-0.009997937,	8,	,	,	,	,	,	,	,	,	,	,	,	,	,
3237.05,	0.02209183,	-0.00999767,	8,	,	,	,	,	,	,	,	,	,	,	,	,	,
3246.72,	0.02212239,	-0.009998318,	8,	,	,	,	,	,	,	,	,	,	,	,	,	,
3256.27,	0.02208037,	-0.009998127,	8,	,	,	,	,	,	,	,	,	,	,	,	,	,
3265.91,	0.02210329,	-0.009997822,	8,	,	,	,	,	,	,	,	,	,	,	,	,	,
3275.51,	0.02206891,	-0.009997822,	8,	,	,	,	,	,	,	,	,	,	,	,	,	,
3285.14,	0.02202688,	-0.009997441,	8,	,	,	,	,	,	,	,	,	,	,	,	,	,
3294.81,	0.02203453,	-0.00999809,	8,	,	,	,	,	,	,	,	,	,	,	,	,	,
3304.32,	0.02210329,	-0.009998585,	8,	,	,	,	,	,	,	,	,	,	,	,	,	,
3313.84,	0.02207273,	-0.009998241,	8,	,	,	,	,	,	,	,	,	,	,	,	,	,
3323.51,	0.02204598,	-0.009998394,	8,	,	,	,	,	,	,	,	,	,	,	,	,	,
3333.14,	0.02206127,	-0.009997937,	8,	,	,	,	,	,	,	,	,	,	,	,	,	,
3342.82,	0.02212621,	-0.009997899,	8,	,	,	,	,	,	,	,	,	,	,	,	,	,
3352.35,	0.02204217,	-0.009997784,	8,	,	,	,	,	,	,	,	,	,	,	,	,	,
3361.94,	0.02208419,	-0.009998165,	8,	,	,	,	,	,	,	,	,	,	,	,	,	,
3371.61,	0.02203453,	-0.009997899,	8,	,	,	,	,	,	,	,	,	,	,	,	,	,
3381.15,	0.02203835,	-0.009998585,	8,	,	,	,	,	,	,	,	,	,	,	,	,	,
3390.85,	0.02203452,	-0.009997784,	8,	,	,	,	,	,	,	,	,	,	,	,	,	,
3400.41,	0.02211093,	-0.009998547,	8,	,	,	,	,	,	,	,	,	,	,	,	,	,
3410.06,	0.02515196,	1.970679e-06,	8,	,	,	,	,	,	,	,	,	,	,	,	,	,
3419.65,	0.05057668,	2.46657e-06,	8,	,	,	,	,	,	,	,	,	,	,	,	,	,
3429.25,	0.06419256,	2.46657e-06,	8,	,	,	,	,	,	,	,	,	,	,	,	,	,
3438.94,	0.07245988,	2.275842e-06,	8,	,	,	,	,	,	,	,	,	,	,	,	,	,
3448.48,	0.07855341,	2.04697e-06,	8,	,	,	,	,	,	,	,	,	,	,	,	,	,
3457.98,	0.08357722,	2.428424e-06,	8,	,	,	,	,	,	,	,	,	,	,	,	,	,
3467.63,	0.08822282,	2.313988e-06,	8,	,	,	,	,	,	,	,	,	,	,	,	,	,
3477.24,	0.09265065,	2.428424e-06,	8,	,	,	,	,	,	,	,	,	,	,	,	,	,
3486.69,	0.09677286,	2.619151e-06,	8,	,	,	,	,	,	,	,	,	,	,	,	,	,
3496.38,	0.1009218,	2.313988e-06,	8,	,	,	,	,	,	,	,	,	,	,	,	,	,
3506.06,	0.1048377,	2.237697e-06,	8,	,	,	,	,	,	,	,	,	,	,	,	,	,
3515.71,	0.1088338,	1.932533e-06,	8,	,	,	,	,	,	,	,	,	,	,	,	,	,
3525.16,	0.1127039,	1.894388e-06,	8,	,	,	,	,	,	,	,	,	,	,	,	,	,
3534.77,	0.1165548,	1.62737e-06,	8,	,	,	,	,	,	,	,	,	,	,	,	,	,
3544.37,	0.1204173,	2.428424e-06,	8,	,	,	,	,	,	,	,	,	,	,	,	,	,
3554.05,	0.1242568,	2.504715e-06,	8,	,	,	,	,	,	,	,	,	,	,	,	,	,
3563.63,	0.1280924,	1.665515e-06,	8,	,	,	,	,	,	,	,	,	,	,	,	,	,
3573.19,	0.1319663,	2.428424e-06,	8,	,	,	,	,	,	,	,	,	,	,	,	,	,
3582.67,	0.135802,	1.856242e-06,	8,	,	,	,	,	,	,	,	,	,	,	,	,	,
3592.12,	0.1396797,	2.199552e-06,	8,	,	,	,	,	,	,	,	,	,	,	,	,	,
3601.48,	0.1435765,	2.161406e-06,	8,	,	,	,	,	,	,	,	,	,	,	,	,	,
3610.99,	0.1476796,	2.008824e-06,	8,	,	,	,	,	,	,	,	,	,	,	,	,	,
3620.68,	0.1518629,	2.581006e-06,	8,	,	,	,	,	,	,	,	,	,	,	,	,	,
3630.32,	0.1560462,	2.008824e-06,	8,	,	,	,	,	,	,	,	,	,	,	,	,	,
3639.94,	0.1604741,	1.665515e-06,	8,	,	,	,	,	,	,	,	,	,	,	,	,	,
3649.49,	0.1648484,	1.779952e-06,	8,	,	,	,	,	,	,	,	,	,	,	,	,	,
3659.06,	0.1693565,	2.275842e-06,	8,	,	,	,	,	,	,	,	,	,	,	,	,	,
3668.61,	0.173941,	2.008824e-06,	8,	,	,	,	,	,	,	,	,	,	,	,	,	,
3678.11,	0.1786515,	2.924315e-06,	8,	,	,	,	,	,	,	,	,	,	,	,	,	,
3687.58,	0.1834155,	2.313988e-06,	8,	,	,	,	,	,	,	,	,	,	,	,	,	,
3697.1,	0.188298,	1.779952e-06,	8,	,	,	,	,	,	,	,	,	,	,	,	,	,
3706.62,	0.1933256,	2.46657e-06,	8,	,	,	,	,	,	,	,	,	,	,	,	,	,
3716.02,	0.02738307,	-0.01499713,	8,	,	,	,	,	,	,	,	,	,	,	,	,	,
3725.51,	0.01821413,	-0.01499797,	8,	,	,	,	,	,	,	,	,	,	,	,	,	,
3735.17,	0.0172896,	-0.01499812,	8,	,	,	,	,	,	,	,	,	,	,	,	,	,
3744.62,	0.01704891,	-0.01499804,	8,	,	,	,	,	,	,	,	,	,	,	,	,	,
3754.15,	0.01702217,	-0.01499785,	8,	,	,	,	,	,	,	,	,	,	,	,	,	,
3763.58,	0.01698779,	-0.01499743,	8,	,	,	,	,	,	,	,	,	,	,	,	,	,
3772.94,	0.01696104,	-0.01499736,	8,	,	,	,	,	,	,	,	,	,	,	,	,	,
3782.4,	0.01695722,	-0.01499785,	8,	,	,	,	,	,	,	,	,	,	,	,	,	,
3791.78,	0.01692666,	-0.01499808,	8,	,	,	,	,	,	,	,	,	,	,	,	,	,
3801.37,	0.01694194,	-0.01499766,	8,	,	,	,	,	,	,	,	,	,	,	,	,	,
3810.94,	0.0169152,	-0.01499785,	8,	,	,	,	,	,	,	,	,	,	,	,	,	,
3820.64,	0.01688082,	-0.01499755,	8,	,	,	,	,	,	,	,	,	,	,	,	,	,
3830.22,	0.01690756,	-0.01499751,	8,	,	,	,	,	,	,	,	,	,	,	,	,	,
3839.67,	0.01692284,	-0.0149977,	8,	,	,	,	,	,	,	,	,	,	,	,	,	,
3849.2,	0.01686171,	-0.01499762,	8,	,	,	,	,	,	,	,	,	,	,	,	,	,
3858.75,	0.01687318,	-0.01499758,	8,	,	,	,	,	,	,	,	,	,	,	,	,	,
3868.28,	0.01688082,	-0.01499789,	8,	,	,	,	,	,	,	,	,	,	,	,	,	,
3877.89,	0.01686553,	-0.01499778,	8,	,	,	,	,	,	,	,	,	,	,	,	,	,
3887.52,	0.01691138,	-0.01499747,	8,	,	,	,	,	,	,	,	,	,	,	,	,	,
3897.125,	0.01688846,	-0.01499835,	8,	,	,	,	,	,	,	,	,	,	,	,	,	,
3906.68,	0.01686936,	-0.01499751,	8,	,	,	,	,	,	,	,	,	,	,	,	,	,
3916.33,	0.01685025,	-0.01499781,	8,	,	,	,	,	,	,	,	,	,	,	,	,	,
3925.99,	0.01686935,	-0.01499793,	8,	,	,	,	,	,	,	,	,	,	,	,	,	,
3935.93,	0.01688082,	-0.01499743,	8,	,	,	,	,	,	,	,	,	,	,	,	,	,
3945.68,	0.01683115,	-0.01499808,	8,	,	,	,	,	,	,	,	,	,	,	,	,	,
3955.27,	0.01688846,	-0.0149977,	8,	,	,	,	,	,	,	,	,	,	,	,	,	,
3964.82,	0.01685789,	-0.01499785,	8,	,	,	,	,	,	,	,	,	,	,	,	,	,
3974.4,	0.01680441,	-0.01499778,	8,	,	,	,	,	,	,	,	,	,	,	,	,	,
3983.94,	0.01680441,	-0.01499739,	8,	,	,	,	,	,	,	,	,	,	,	,	,	,
3993.39,	0.01681969,	-0.01499797,	8,	,	,	,	,	,	,	,	,	,	,	,	,	,
4002.88,	0.01683115,	-0.01499743,	8,	,	,	,	,	,	,	,	,	,	,	,	,	,
4012.25,	0.0277995,	1.703661e-06,	8,	,	,	,	,	,	,	,	,	,	,	,	,	,
4021.79,	0.05040858,	2.352133e-06,	8,	,	,	,	,	,	,	,	,	,	,	,	,	,
4031.1,	0.06233966,	2.161406e-06,	8,	,	,	,	,	,	,	,	,	,	,	,	,	,
4040.67,	0.06985437,	2.275842e-06,	8,	,	,	,	,	,	,	,	,	,	,	,	,	,
4050.14,	0.07534428,	1.932533e-06,	8,	,	,	,	,	,	,	,	,	,	,	,	,	,
4059.71,	0.07998224,	1.703661e-06,	8,	,	,	,	,	,	,	,	,	,	,	,	,	,
4069.32,	0.0843031,	2.199552e-06,	8,	,	,	,	,	,	,	,	,	,	,	,	,	,
4078.81,	0.08815788,	2.199552e-06,	8,	,	,	,	,	,	,	,	,	,	,	,	,	,
4088.19,	0.09185601,	3.267624e-06,	8,	,	,	,	,	,	,	,	,	,	,	,	,	,
4097.68,	0.09554651,	2.46657e-06,	8,	,	,	,	,	,	,	,	,	,	,	,	,	,
4107.16,	0.09908037,	2.275842e-06,	8,	,	,	,	,	,	,	,	,	,	,	,	,	,
4116.76,	0.1026181,	2.657297e-06,	8,	,	,	,	,	,	,	,	,	,	,	,	,	,
4126.32,	0.1061214,	2.619151e-06,	8,	,	,	,	,	,	,	,	,	,	,	,	,	,
4135.8,	0.1095291,	2.123261e-06,	8,	,	,	,	,	,	,	,	,	,	,	,	,	,
4145.35,	0.1129904,	2.008824e-06,	8,	,	,	,	,	,	,	,	,	,	,	,	,	,
4154.93,	0.1164975,	2.809879e-06,	8,	,	,	,	,	,	,	,	,	,	,	,	,	,
4164.41,	0.1198633,	2.161406e-06,	8,	,	,	,	,	,	,	,	,	,	,	,	,	,
4174,	0.1232902,	2.237697e-06,	8,	,	,	,	,	,	,	,	,	,	,	,	,	,
4183.53,	0.1267553,	2.085115e-06,	8,	,	,	,	,	,	,	,	,	,	,	,	,	,
4193.02,	0.1301249,	2.123261e-06,	8,	,	,	,	,	,	,	,	,	,	,	,	,	,
4202.65,	0.1337237,	2.695442e-06,	8,	,	,	,	,	,	,	,	,	,	,	,	,	,
4212.14,	0.1372041,	2.04697e-06,	8,	,	,	,	,	,	,	,	,	,	,	,	,	,
4221.68,	0.1406883,	2.581006e-06,	8,	,	,	,	,	,	,	,	,	,	,	,	,	,
4231.11,	0.1442832,	2.695442e-06,	8,	,	,	,	,	,	,	,	,	,	,	,	,	,
4240.87,	0.1480043,	2.04697e-06,	8,	,	,	,	,	,	,	,	,	,	,	,	,	,
4250.625,	0.1517712,	2.428424e-06,	8,	,	,	,	,	,	,	,	,	,	,	,	,	,
4260.13,	0.1555993,	2.237697e-06,	8,	,	,	,	,	,	,	,	,	,	,	,	,	,
4269.56,	0.1593776,	2.275842e-06,	8,	,	,	,	,	,	,	,	,	,	,	,	,	,
4278.97,	0.1632439,	1.932533e-06,	8,	,	,	,	,	,	,	,	,	,	,	,	,	,
4288.43,	0.1672476,	2.542861e-06,	8,	,	,	,	,	,	,	,	,	,	,	,	,	,
4297.89,	0.1712552,	2.46657e-06,	8,	,	,	,	,	,	,	,	,	,	,	,	,	,
4307.48,	0.1753698,	1.512933e-06,	8,	,	,	,	,	,	,	,	,	,	,	,	,	,
4316.88,	0.01823324,	-0.0199975,	8,	,	,	,	,	,	,	,	,	,	,	,	,	,
4326.44,	0.01387417,	-0.01999773,	8,	,	,	,	,	,	,	,	,	,	,	,	,	,
4335.71,	0.01342336,	-0.01999815,	8,	,	,	,	,	,	,	,	,	,	,	,	,	,
4345.27,	0.01331257,	-0.01999784,	8,	,	,	,	,	,	,	,	,	,	,	,	,	,
4354.9,	0.01325144,	-0.01999784,	8,	,	,	,	,	,	,	,	,	,	,	,	,	,
4364.39,	0.01320178,	-0.01999796,	8,	,	,	,	,	,	,	,	,	,	,	,	,	,
4374.01,	0.01319796,	-0.0199983,	8,	,	,	,	,	,	,	,	,	,	,	,	,	,
4383.62,	0.01325144,	-0.01999819,	8,	,	,	,	,	,	,	,	,	,	,	,	,	,
4393.48,	0.01319032,	-0.0199983,	8,	,	,	,	,	,	,	,	,	,	,	,	,	,
4403.05,	0.01317886,	-0.01999838,	8,	,	,	,	,	,	,	,	,	,	,	,	,	,
4412.49,	0.01317504,	-0.01999803,	8,	,	,	,	,	,	,	,	,	,	,	,	,	,
4421.97,	0.01311773,	-0.01999792,	8,	,	,	,	,	,	,	,	,	,	,	,	,	,
4431.69,	0.01313683,	-0.01999777,	8,	,	,	,	,	,	,	,	,	,	,	,	,	,
4441.32,	0.01317886,	-0.01999792,	8,	,	,	,	,	,	,	,	,	,	,	,	,	,
4450.96,	0.01317504,	-0.01999811,	8,	,	,	,	,	,	,	,	,	,	,	,	,	,
4460.53,	0.01316357,	-0.01999803,	8,	,	,	,	,	,	,	,	,	,	,	,	,	,
4469.99,	0.01313301,	-0.01999758,	8,	,	,	,	,	,	,	,	,	,	,	,	,	,
4479.37,	0.01317886,	-0.01999823,	8,	,	,	,	,	,	,	,	,	,	,	,	,	,
4488.83,	0.01317504,	-0.01999849,	8,	,	,	,	,	,	,	,	,	,	,	,	,	,
4500.25,	0.01318268,	-0.01999762,	8,	,	,	,	,	,	,	,	,	,	,	,	,	,
4509.88,	0.01312155,	-0.01999815,	8,	,	,	,	,	,	,	,	,	,	,	,	,	,
4519.39,	0.0131674,	-0.01999784,	8,	,	,	,	,	,	,	,	,	,	,	,	,	,
4528.89,	0.01313683,	-0.01999792,	8,	,	,	,	,	,	,	,	,	,	,	,	,	,
4538.42,	0.01315593,	-0.01999777,	8,	,	,	,	,	,	,	,	,	,	,	,	,	,
4547.95,	0.01306807,	-0.01999758,	8,	,	,	,	,	,	,	,	,	,	,	,	,	,
4557.4,	0.01317121,	-0.01999765,	8,	,	,	,	,	,	,	,	,	,	,	,	,	,
4567.02,	0.01313683,	-0.01999784,	8,	,	,	,	,	,	,	,	,	,	,	,	,	,
4576.69,	0.01312155,	-0.01999811,	8,	,	,	,	,	,	,	,	,	,	,	,	,	,
4586.13,	0.01308717,	-0.01999788,	8,	,	,	,	,	,	,	,	,	,	,	,	,	,
4595.53,	0.01312155,	-0.01999842,	8,	,	,	,	,	,	,	,	,	,	,	,	,	,
4605.09,	0.0131674,	-0.01999803,	8,	,	,	,	,	,	,	,	,	,	,	,	,	,
4614.75,	0.03185293,	2.085115e-06,	8,	,	,	,	,	,	,	,	,	,	,	,	,	,
4624.36,	0.0517801,	2.237697e-06,	8,	,	,	,	,	,	,	,	,	,	,	,	,	,
4634,	0.06212954,	2.008824e-06,	8,	,	,	,	,	,	,	,	,	,	,	,	,	,
4643.35,	0.06850577,	2.390279e-06,	8,	,	,	,	,	,	,	,	,	,	,	,	,	,
4653.02,	0.07348374,	1.703661e-06,	8,	,	,	,	,	,	,	,	,	,	,	,	,	,
4662.34,	0.07756775,	1.970679e-06,	8,	,	,	,	,	,	,	,	,	,	,	,	,	,
4671.95,	0.08143398,	2.390279e-06,	8,	,	,	,	,	,	,	,	,	,	,	,	,	,
4681.53,	0.08511303,	2.352133e-06,	8,	,	,	,	,	,	,	,	,	,	,	,	,	,
4691.13,	0.08862396,	1.932533e-06,	8,	,	,	,	,	,	,	,	,	,	,	,	,	,
4700.8,	0.09203175,	1.894388e-06,	8,	,	,	,	,	,	,	,	,	,	,	,	,	,
4710.34,	0.09536695,	2.199552e-06,	8,	,	,	,	,	,	,	,	,	,	,	,	,	,
4719.76,	0.09861811,	1.436642e-06,	8,	,	,	,	,	,	,	,	,	,	,	,	,	,
4729.41,	0.101854,	2.504715e-06,	8,	,	,	,	,	,	,	,	,	,	,	,	,	,
4738.9,	0.1050899,	2.313988e-06,	8,	,	,	,	,	,	,	,	,	,	,	,	,	,
4748.45,	0.108234,	1.665515e-06,	8,	,	,	,	,	,	,	,	,	,	,	,	,	,
4757.89,	0.1112483,	2.352133e-06,	8,	,	,	,	,	,	,	,	,	,	,	,	,	,
4767.5,	0.1144116,	1.856242e-06,	8,	,	,	,	,	,	,	,	,	,	,	,	,	,
4777.03,	0.1174335,	2.008824e-06,	8,	,	,	,	,	,	,	,	,	,	,	,	,	,
4786.63,	0.1205701,	1.894388e-06,	8,	,	,	,	,	,	,	,	,	,	,	,	,	,
4796.21,	0.1236455,	2.390279e-06,	8,	,	,	,	,	,	,	,	,	,	,	,	,	,
4805.68,	0.1267782,	1.856243e-06,	8,	,	,	,	,	,	,	,	,	,	,	,	,	,
4815.2,	0.1298651,	1.741806e-06,	8,	,	,	,	,	,	,	,	,	,	,	,	,	,
4824.78,	0.1329558,	1.970679e-06,	8,	,	,	,	,	,	,	,	,	,	,	,	,	,
4834.4,	0.1361229,	2.04697e-06,	8,	,	,	,	,	,	,	,	,	,	,	,	,	,
4844.04,	0.1393664,	1.512933e-06,	8,	,	,	,	,	,	,	,	,	,	,	,	,	,
4853.59,	0.1425717,	1.779952e-06,	8,	,	,	,	,	,	,	,	,	,	,	,	,	,
4863.08,	0.1457426,	2.008824e-06,	8,	,	,	,	,	,	,	,	,	,	,	,	,	,
4872.66,	0.1490473,	2.04697e-06,	8,	,	,	,	,	,	,	,	,	,	,	,	,	,
4882.11,	0.1523557,	1.818097e-06,	8,	,	,	,	,	,	,	,	,	,	,	,	,	,
4891.7,	0.1557903,	2.123261e-06,	8,	,	,	,	,	,	,	,	,	,	,	,	,	,
4901.19,	0.1591369,	2.161406e-06,	8,	,	,	,	,	,	,	,	,	,	,	,	,	,
4909.6,	0.162327,	1.932533e-06,	8,	,	,	,	,	,	,	,	,	,	,	,	,	,