File: Quantification/development/HERonPt_RnD1_newMS_2.csv
ixdat version = 0.2.2dev
name = 2022-04-07 11_53_00 HER on Pt repeatability.tsv
technique = EC-MS
tstamp = 1649325180.0
backend_name = BackendBase(none, address=none)
id = 5
timecol 'time/s' for: 'Ewe/V' and 'I/mA' and 'selector'
timecol 'M40-x' for: 'M40'
timecol 'M28-x' for: 'M28'
timecol 'M18-x' for: 'M18'
timecol 'M4-x' for: 'M4'
timecol 'M32-x' for: 'M32'
timecol 'M44-x' for: 'M44'
timecol 'M2-x' for: 'M2'
aliases = {"t": ["time/s"], "raw_potential": ["Ewe/V", "<Ewe>/V"], "raw_current": ["I/mA", "<I>/mA"], "cycle": ["cycle number"]}
N_header_lines = 18

time/s,	Ewe/V,	I/mA,	selector,	M40-x,	M40,	M28-x,	M28,	M18-x,	M18,	M4-x,	M4,	M32-x,	M32,	M44-x,	M44,	M2-x,	M2
19.6748,	1.119307,	0.0002056183,	0,	0.859468,	3.307309e-12,	0.710553,	1.868108e-10,	0.636596,	3.636958e-09,	0.561639,	4.208231e-08,	0.78551,	1.816777e-10,	0.934425,	3.731745e-11,	0.487681,	2.345613e-09
26.8778,	1.119368,	0.0001811882,	0,	28.9938,	3.187808e-12,	28.8449,	1.783649e-10,	28.7709,	3.437613e-09,	28.6959,	3.983452e-08,	28.9199,	1.75149e-10,	29.0689,	3.508371e-11,	28.6219,	2.219693e-09
35.019,	1.238079,	0.0002460807,	0,	57.1259,	3.375756e-12,	56.9769,	1.806693e-10,	56.9029,	3.446522e-09,	56.8279,	3.968848e-08,	57.0519,	2.011897e-10,	57.2009,	3.554531e-11,	56.7539,	2.227409e-09
43.1104,	1.399972,	0.004356063,	0,	85.26,	3.027232e-12,	85.111,	1.781846e-10,	85.037,	3.455898e-09,	84.962,	3.967928e-08,	85.186,	1.827779e-10,	85.335,	3.639595e-11,	84.888,	2.224687e-09
51.2504,	1.562713,	0.009013815,	0,	113.393,	3.283244e-12,	113.244,	1.783161e-10,	113.17,	3.449764e-09,	113.095,	3.919341e-08,	113.319,	1.708989e-10,	113.468,	4.125547e-11,	113.021,	2.211567e-09
59.2704,	1.678181,	0.01303638,	0,	141.526,	3.33546e-12,	141.377,	1.806392e-10,	141.303,	3.443085e-09,	141.228,	3.964245e-08,	141.452,	1.704724e-10,	141.601,	4.01557e-11,	141.154,	2.252025e-09
67.5804,	1.512211,	-0.0009204567,	0,	169.659,	3.199472e-12,	169.51,	1.769773e-10,	169.437,	3.481369e-09,	169.362,	3.946297e-08,	169.586,	1.692377e-10,	169.734,	3.760774e-11,	169.288,	2.224736e-09
75.817,	1.347568,	-0.0004154406,	0,	197.792,	3.134461e-12,	197.643,	1.800033e-10,	197.569,	3.435062e-09,	197.494,	3.947115e-08,	197.718,	1.692745e-10,	197.867,	4.96737e-11,	197.42,	2.221546e-09
83.8732,	1.186206,	0.001632107,	0,	225.924,	3.066252e-12,	225.776,	1.845139e-10,	225.701,	3.452691e-09,	225.626,	3.941682e-08,	225.851,	4.695825e-10,	225.999,	7.02684e-11,	225.553,	2.216843e-09
91.9112,	1.025493,	-0.0008548007,	0,	254.059,	3.180526e-12,	253.91,	1.813441e-10,	253.836,	3.438724e-09,	253.761,	3.96014e-08,	253.985,	2.330696e-10,	254.134,	5.550678e-11,	253.687,	2.190392e-09
100.03,	0.8633444,	-0.00433838,	0,	282.191,	3.057431e-12,	282.043,	1.780208e-10,	281.968,	3.425782e-09,	281.894,	3.938293e-08,	282.117,	1.73321e-10,	282.266,	4.864164e-11,	281.819,	2.203289e-09
108.259,	0.6987086,	-0.03106224,	0,	310.324,	3.100138e-12,	310.175,	1.750491e-10,	310.101,	3.440959e-09,	310.026,	3.915011e-08,	310.25,	1.706376e-10,	310.399,	4.216557e-11,	309.952,	2.238174e-09
116.407,	0.5355625,	-0.0008215911,	0,	338.458,	3.371358e-12,	338.309,	1.759701e-10,	338.235,	3.420394e-09,	338.16,	3.953285e-08,	338.384,	1.710336e-10,	338.533,	3.921562e-11,	338.086,	2.227491e-09
124.685,	0.3700708,	-0.001046424,	0,	366.591,	3.190198e-12,	366.441,	1.767084e-10,	366.368,	3.382057e-09,	366.293,	3.896093e-08,	366.516,	1.703772e-10,	366.665,	4.612495e-11,	366.218,	2.213498e-09
132.653,	0.2107834,	-0.002211435,	0,	394.724,	3.018379e-12,	394.575,	1.804153e-10,	394.501,	3.406526e-09,	394.426,	3.872509e-08,	394.65,	4.578081e-10,	394.799,	6.331397e-11,	394.352,	2.185081e-09
140.741,	0.04896682,	-0.01971216,	0,	422.857,	3.018995e-12,	422.708,	1.778419e-10,	422.634,	3.425186e-09,	422.559,	3.905235e-08,	422.783,	2.355063e-10,	422.932,	5.270758e-11,	422.485,	2.18581e-09
148.865,	0.1353842,	0.006708988,	0,	450.989,	3.186834e-12,	450.84,	1.767614e-10,	450.766,	3.411189e-09,	450.691,	3.927063e-08,	450.915,	1.743295e-10,	451.064,	4.689145e-11,	450.617,	2.194433e-09
156.991,	0.2978998,	0.001818768,	0,	479.123,	3.25701e-12,	478.974,	1.759836e-10,	478.9,	3.429e-09,	478.825,	3.912697e-08,	479.049,	1.720042e-10,	479.198,	4.117321e-11,	478.751,	2.21538e-09
165.039,	0.4588796,	0.0002079086,	0,	507.256,	2.917676e-12,	507.107,	1.76738e-10,	507.033,	3.460573e-09,	506.958,	3.909911e-08,	507.182,	1.697922e-10,	507.331,	3.77593e-11,	506.884,	2.220819e-09
173.232,	0.6226407,	0.007566331,	0,	535.389,	3.131462e-12,	535.24,	1.768425e-10,	535.166,	3.43638e-09,	535.091,	3.924718e-08,	535.315,	1.725145e-10,	535.464,	4.600895e-11,	535.017,	2.20822e-09
181.512,	0.7883731,	-0.0003791772,	0,	563.522,	3.050828e-12,	563.373,	1.765372e-10,	563.299,	3.444926e-09,	563.224,	3.96257e-08,	563.448,	1.728079e-10,	563.597,	4.14513e-11,	563.15,	2.210428e-09
189.708,	0.9521953,	0.01215194,	0,	591.655,	3.467865e-12,	591.506,	1.746439e-10,	591.432,	3.423471e-09,	591.357,	3.904406e-08,	591.581,	1.720654e-10,	591.73,	3.949743e-11,	591.283,	2.19719e-09
197.91,	1.116239,	0.01120603,	0,	619.788,	3.118529e-12,	619.639,	1.752897e-10,	619.565,	3.423168e-09,	619.49,	3.933662e-08,	619.714,	1.708177e-10,	619.863,	3.791944e-11,	619.417,	2.213401e-09
206.042,	1.278919,	0.00596845,	1,	647.921,	3.279372e-12,	647.772,	1.758112e-10,	647.698,	3.387246e-09,	647.623,	3.930496e-08,	647.847,	1.714859e-10,	647.996,	3.635766e-11,	647.549,	2.214302e-09
214.201,	1.441966,	0.01082431,	1,	676.055,	3.318752e-12,	675.906,	1.751235e-10,	675.832,	3.419747e-09,	675.757,	3.907009e-08,	675.981,	1.709991e-10,	676.13,	3.676098e-11,	675.683,	2.20656e-09
222.276,	1.60366,	0.02679931,	1,	704.188,	3.189884e-12,	704.039,	1.757852e-10,	703.965,	3.395753e-09,	703.89,	3.896655e-08,	704.114,	1.689971e-10,	704.263,	3.538003e-11,	703.816,	2.204407e-09
230.412,	1.635098,	0.01620352,	1,	732.32,	3.062153e-12,	732.171,	1.737228e-10,	732.097,	3.436394e-09,	732.022,	3.932837e-08,	732.246,	1.723144e-10,	732.395,	3.540879e-11,	731.948,	2.208788e-09
238.449,	1.474355,	0.001981381,	1,	760.454,	3.138682e-12,	760.305,	1.744081e-10,	760.23,	3.413013e-09,	760.155,	3.894636e-08,	760.379,	1.710485e-10,	760.529,	3.535572e-11,	760.082,	2.217047e-09
246.584,	1.311774,	-0.002428634,	1,	788.587,	3.03854e-12,	788.438,	1.757001e-10,	788.364,	3.45732e-09,	788.289,	3.934655e-08,	788.513,	1.716586e-10,	788.662,	3.522974e-11,	788.215,	2.225741e-09
254.789,	1.147482,	0.001660355,	1,	816.721,	3.240444e-12,	816.572,	1.764478e-10,	816.498,	3.409108e-09,	816.423,	3.90846e-08,	816.647,	1.720931e-10,	816.796,	3.539448e-11,	816.349,	2.220704e-09
262.98,	0.9838319,	-0.002190058,	1,	844.854,	3.203929e-12,	844.705,	1.750651e-10,	844.631,	3.393147e-09,	844.556,	3.929335e-08,	844.78,	1.694976e-10,	844.929,	3.53865e-11,	844.482,	2.21426e-09
271.104,	0.8212552,	-0.008553336,	1,	872.987,	3.120056e-12,	872.838,	1.731042e-10,	872.764,	3.458062e-09,	872.689,	3.97071e-08,	872.913,	1.669456e-10,	873.062,	3.627269e-11,	872.615,	2.221705e-09
279.218,	0.6591523,	-0.01102727,	1,	901.12,	3.131937e-12,	900.971,	1.760483e-10,	900.897,	3.432526e-09,	900.822,	3.936081e-08,	901.046,	1.689448e-10,	901.195,	3.486036e-11,	900.748,	2.216194e-09
287.359,	0.4962278,	-0.0008582362,	1,	929.253,	3.069042e-12,	929.104,	1.759522e-10,	929.03,	3.41069e-09,	928.955,	3.905172e-08,	929.179,	1.679969e-10,	929.328,	3.520816e-11,	928.881,	2.578632e-09
295.42,	0.3350455,	-0.001832386,	1,	957.386,	3.157538e-12,	957.237,	1.740724e-10,	957.163,	3.444272e-09,	957.088,	3.933928e-08,	957.312,	1.662122e-10,	957.461,	3.479675e-11,	957.014,	2.798926e-09
303.577,	0.1719109,	-0.007366567,	1,	985.519,	2.977055e-12,	985.37,	1.73885e-10,	985.296,	3.405783e-09,	985.221,	3.923879e-08,	985.445,	1.669559e-10,	985.594,	3.478969e-11,	985.147,	2.8302e-09
311.795,	0.01413634,	0.05899971,	1,	1013.65,	3.117865e-12,	1013.5,	1.718889e-10,	1013.43,	3.414138e-09,	1013.35,	3.932499e-08,	1013.58,	1.652068e-10,	1013.73,	3.513613e-11,	1013.28,	2.846829e-09
320.013,	0.1787418,	0.009738701,	1,	1041.79,	3.081844e-12,	1041.64,	1.73826e-10,	1041.56,	3.380948e-09,	1041.49,	3.917559e-08,	1041.71,	1.67385e-10,	1041.86,	3.471306e-11,	1041.41,	2.867424e-09
328.149,	0.341372,	-0.001054059,	1,	1069.92,	3.170828e-12,	1069.77,	1.73479e-10,	1069.69,	3.402401e-09,	1069.62,	3.909482e-08,	1069.84,	1.662566e-10,	1069.99,	3.422584e-11,	1069.55,	2.87635e-09
336.24,	0.5031694,	0.0003044839,	1,	1098.05,	3.065553e-12,	1097.9,	1.73758e-10,	1097.83,	3.380935e-09,	1097.75,	3.919375e-08,	1097.98,	1.654377e-10,	1098.13,	3.485994e-11,	1097.68,	2.874059e-09
344.415,	0.6666517,	0.0005651988,	1,	1126.18,	3.114365e-12,	1126.04,	1.721956e-10,	1125.96,	3.397479e-09,	1125.89,	3.942556e-08,	1126.11,	1.640086e-10,	1126.26,	3.414175e-11,	1125.81,	2.890252e-09
352.61,	0.8306381,	0.0004846559,	1,	1154.32,	2.996655e-12,	1154.17,	1.738316e-10,	1154.09,	3.392809e-09,	1154.02,	3.906561e-08,	1154.24,	1.664206e-10,	1154.39,	3.356292e-11,	1153.94,	2.270881e-09
360.779,	0.9940134,	0.005476794,	1,	1182.45,	2.865652e-12,	1182.3,	1.737221e-10,	1182.23,	3.396486e-09,	1182.15,	3.881176e-08,	1182.38,	1.637786e-10,	1182.53,	3.504669e-11,	1182.08,	2.224868e-09
368.809,	1.154531,	0.009692895,	2,	1210.58,	3.339308e-12,	1210.43,	1.703034e-10,	1210.36,	3.417699e-09,	1210.29,	3.963777e-08,	1210.51,	1.622406e-10,	1210.66,	3.457092e-11,	1210.21,	2.217287e-09
377.014,	1.3188,	0.007204461,	2,	1238.72,	3.012001e-12,	1238.57,	1.73549e-10,	1238.49,	3.401141e-09,	1238.42,	3.932091e-08,	1238.64,	1.637444e-10,	1238.79,	3.407491e-11,	1238.35,	2.214303e-09
385.045,	1.479172,	0.009889863,	2,	1266.85,	3.028868e-12,	1266.7,	1.715634e-10,	1266.63,	3.374476e-09,	1266.55,	3.86735e-08,	1266.78,	1.641176e-10,	1266.92,	3.331312e-11,	1266.48,	2.215772e-09
393.079,	1.639969,	0.05407093,	2,	1294.98,	3.009094e-12,	1294.83,	1.718816e-10,	1294.76,	3.41587e-09,	1294.68,	3.887726e-08,	1294.91,	1.64212e-10,	1295.06,	3.380809e-11,	1294.61,	2.218041e-09
401.285,	1.597372,	0.005572225,	2,	1323.12,	2.908462e-12,	1322.97,	1.73401e-10,	1322.89,	3.370613e-09,	1322.82,	3.923014e-08,	1323.04,	1.650156e-10,	1323.19,	3.381585e-11,	1322.74,	2.210916e-09
409.51,	1.43285,	-0.007483756,	2,	1351.25,	3.04733e-12,	1351.1,	1.706988e-10,	1351.03,	3.381585e-09,	1350.95,	3.872807e-08,	1351.17,	1.644835e-10,	1351.32,	3.401623e-11,	1350.88,	2.213865e-09
417.478,	1.273529,	-0.001394935,	2,	1379.38,	2.93179e-12,	1379.23,	1.727172e-10,	1379.16,	3.382692e-09,	1379.09,	3.886005e-08,	1379.31,	1.659752e-10,	1379.46,	3.354456e-11,	1379.01,	2.212255e-09
425.657,	1.109844,	-0.006689396,	2,	1407.52,	3.019096e-12,	1407.37,	1.70299e-10,	1407.29,	3.39499e-09,	1407.22,	3.865538e-08,	1407.44,	1.638409e-10,	1407.59,	3.458189e-11,	1407.14,	2.213584e-09
433.854,	0.9461018,	-0.003437902,	2,	1435.65,	3.184331e-12,	1435.5,	1.702511e-10,	1435.43,	3.371283e-09,	1435.35,	3.890825e-08,	1435.58,	1.646738e-10,	1435.72,	3.358442e-11,	1435.28,	2.224194e-09
441.934,	0.7844343,	-0.01651984,	2,	1463.78,	3.222306e-12,	1463.63,	1.722523e-10,	1463.56,	3.423144e-09,	1463.48,	3.93748e-08,	1463.71,	1.654895e-10,	1463.86,	3.462158e-11,	1463.41,	3.231047e-09
450.131,	0.6204516,	-0.004467402,	2,	1491.91,	3.205786e-12,	1491.77,	1.684359e-10,	1491.69,	3.382574e-09,	1491.62,	3.908353e-08,	1491.84,	1.64485e-10,	1491.99,	3.387024e-11,	1491.54,	3.659888e-09
458.202,	0.4591585,	-0.001386919,	2,	1520.05,	2.916157e-12,	1519.9,	1.726751e-10,	1519.83,	3.401169e-09,	1519.75,	3.956729e-08,	1519.97,	1.648881e-10,	1520.12,	3.441914e-11,	1519.68,	3.718464e-09
466.278,	0.297533,	-0.00320009,	2,	1548.18,	3.010619e-12,	1548.03,	1.717022e-10,	1547.96,	3.388689e-09,	1547.88,	3.907037e-08,	1548.11,	1.639546e-10,	1548.26,	3.469872e-11,	1547.81,	3.705377e-09
474.393,	0.1353078,	-0.007459326,	2,	1576.31,	3.037705e-12,	1576.16,	1.697793e-10,	1576.09,	3.454702e-09,	1576.02,	3.882032e-08,	1576.24,	1.644719e-10,	1576.39,	3.454111e-11,	1575.94,	3.719273e-09
482.466,	0.04813014,	0.01248365,	2,	1604.45,	3.222132e-12,	1604.3,	1.705743e-10,	1604.22,	3.411917e-09,	1604.15,	3.881034e-08,	1604.37,	1.645488e-10,	1604.52,	3.409817e-11,	1604.08,	3.72066e-09
490.582,	0.2104702,	0.01089455,	2,	1632.58,	2.901391e-12,	1632.43,	1.703838e-10,	1632.36,	3.414754e-09,	1632.28,	3.892451e-08,	1632.51,	1.637576e-10,	1632.65,	3.410191e-11,	1632.21,	3.736673e-09
498.66,	0.3719161,	0.0003373119,	2,	1660.71,	3.304073e-12,	1660.56,	1.699157e-10,	1660.49,	3.363568e-09,	1660.41,	3.93279e-08,	1660.64,	1.620832e-10,	1660.79,	3.434831e-11,	1660.34,	3.721176e-09
506.782,	0.5343973,	0.000561,	2,	1688.85,	3.043377e-12,	1688.7,	1.692851e-10,	1688.62,	3.427798e-09,	1688.55,	3.890994e-08,	1688.77,	1.643159e-10,	1688.92,	3.444406e-11,	1688.47,	3.737492e-09
514.844,	0.69574,	-0.00135829,	2,	1716.98,	3.134818e-12,	1716.83,	1.690279e-10,	1716.76,	3.386634e-09,	1716.68,	3.89212e-08,	1716.9,	1.638726e-10,	1717.05,	3.356685e-11,	1716.61,	3.730818e-09
522.81,	0.8548976,	0.001313371,	2,	1745.11,	2.964303e-12,	1744.96,	1.700967e-10,	1744.89,	3.404951e-09,	1744.82,	3.891953e-08,	1745.04,	1.654061e-10,	1745.19,	3.362295e-11,	1744.74,	2.585256e-09
530.876,	1.01629,	0.003544144,	2,	1773.24,	3.195914e-12,	1773.1,	1.706048e-10,	1773.02,	3.355148e-09,	1772.95,	3.88736e-08,	1773.17,	1.622826e-10,	1773.32,	3.484833e-11,	1772.87,	2.2534e-09
539.096,	1.054055,	1.131479e-06,	3,	1801.38,	2.841832e-12,	1801.23,	1.69711e-10,	1801.16,	3.3892e-09,	1801.08,	3.906644e-08,	1801.31,	1.629309e-10,	1801.45,	3.508365e-11,	1801.01,	2.231591e-09
547.314,	1.021264,	1.474788e-06,	3,	1829.51,	3.194014e-12,	1829.36,	1.694381e-10,	1829.29,	3.378765e-09,	1829.21,	3.87463e-08,	1829.44,	1.640583e-10,	1829.59,	3.355358e-11,	1829.14,	2.230814e-09
555.506,	1.007667,	1.62737e-06,	3,	1857.64,	3.174131e-12,	1857.5,	1.697049e-10,	1857.42,	3.405847e-09,	1857.35,	3.882035e-08,	1857.57,	1.649145e-10,	1857.72,	3.31894e-11,	1857.27,	2.226195e-09
563.675,	0.999167,	1.779952e-06,	3,	1885.78,	2.783494e-12,	1885.63,	1.69126e-10,	1885.56,	3.385904e-09,	1885.48,	3.892057e-08,	1885.7,	1.637403e-10,	1885.85,	3.261973e-11,	1885.41,	2.214615e-09
571.845,	0.9930926,	1.551079e-06,	3,	1913.91,	3.14696e-12,	1913.76,	1.698723e-10,	1913.69,	3.357878e-09,	1913.61,	3.872814e-08,	1913.84,	1.641426e-10,	1913.98,	3.408624e-11,	1913.54,	2.210214e-09
580.025,	0.9885158,	2.046969e-06,	3,	1942.04,	2.930087e-12,	1941.89,	1.685885e-10,	1941.82,	3.366947e-09,	1941.75,	3.909311e-08,	1941.97,	1.648302e-10,	1942.12,	3.426854e-11,	1941.67,	2.216924e-09
588.094,	0.9848176,	1.856242e-06,	3,	1970.18,	3.193583e-12,	1970.03,	1.68998e-10,	1969.95,	3.370841e-09,	1969.88,	3.873162e-08,	1970.1,	1.6343e-10,	1970.25,	3.408883e-11,	1969.8,	2.206873e-09
596.303,	0.9817384,	1.551079e-06,	3,	1998.31,	3.14789e-12,	1998.16,	1.685313e-10,	1998.09,	3.379077e-09,	1998.01,	3.870267e-08,	1998.24,	1.642434e-10,	1998.39,	3.45449e-11,	1997.94,	2.210474e-09
604.404,	0.9791481,	1.436642e-06,	3,	2026.44,	2.849624e-12,	2026.3,	1.674792e-10,	2026.22,	3.38709e-09,	2026.15,	3.938468e-08,	2026.37,	1.625206e-10,	2026.52,	3.333387e-11,	2026.07,	2.213075e-09
612.543,	0.9769323,	2.123261e-06,	3,	2054.58,	2.89708e-12,	2054.43,	1.694341e-10,	2054.35,	3.400854e-09,	2054.28,	3.89413e-08,	2054.5,	1.623185e-10,	2054.65,	3.482512e-11,	2054.2,	4.81572e-09
620.726,	0.9749382,	1.703661e-06,	3,	2082.71,	3.186699e-12,	2082.56,	1.686695e-10,	2082.49,	3.375033e-09,	2082.41,	3.906648e-08,	2082.64,	1.639111e-10,	2082.79,	3.392474e-11,	2082.34,	5.321097e-09
628.888,	0.9731846,	1.360352e-06,	3,	2110.84,	3.024401e-12,	2110.69,	1.68694e-10,	2110.62,	3.442325e-09,	2110.55,	3.897547e-08,	2110.77,	1.627716e-10,	2110.92,	3.400066e-11,	2110.47,	5.362721e-09
636.997,	0.9716144,	2.123261e-06,	3,	2138.98,	2.83109e-12,	2138.83,	1.614461e-10,	2138.75,	3.381687e-09,	2138.68,	3.8699e-08,	2138.9,	1.581323e-10,	2139.05,	3.359035e-11,	2138.6,	5.361125e-09
645.191,	0.9702275,	2.046969e-06,	3,	2167.11,	2.876575e-12,	2166.96,	1.585469e-10,	2166.89,	3.396561e-09,	2166.81,	3.913824e-08,	2167.04,	1.577467e-10,	2167.18,	3.332202e-11,	2166.74,	5.364686e-09
653.286,	0.9689516,	1.932533e-06,	3,	2195.24,	2.64253e-12,	2195.09,	1.585133e-10,	2195.02,	3.405984e-09,	2194.94,	3.91972e-08,	2195.17,	1.592019e-10,	2195.32,	3.356915e-11,	2194.87,	5.381203e-09
661.394,	0.9678284,	1.894388e-06,	3,	2223.38,	2.925798e-12,	2223.23,	1.575539e-10,	2223.15,	3.424613e-09,	2223.08,	3.885335e-08,	2223.3,	1.603473e-10,	2223.45,	3.347777e-11,	2223,	5.382642e-09
669.646,	0.9667395,	1.703661e-06,	3,	2251.51,	2.708543e-12,	2251.36,	1.57272e-10,	2251.29,	3.404823e-09,	2251.21,	3.881902e-08,	2251.43,	1.575452e-10,	2251.58,	3.24263e-11,	2251.14,	5.379948e-09
677.714,	0.9657424,	1.474788e-06,	3,	2279.64,	2.750286e-12,	2279.49,	1.568068e-10,	2279.42,	3.376123e-09,	2279.34,	3.911493e-08,	2279.57,	1.581635e-10,	2279.72,	3.209595e-11,	2279.27,	5.379518e-09
685.713,	0.9648675,	2.199552e-06,	3,	2307.78,	2.549974e-12,	2307.63,	1.570046e-10,	2307.55,	3.394218e-09,	2307.48,	3.9201e-08,	2307.7,	1.569042e-10,	2307.85,	3.356567e-11,	2307.4,	5.402645e-09
693.902,	0.9639927,	1.589224e-06,	3,	2335.91,	2.777421e-12,	2335.76,	1.56395e-10,	2335.68,	3.416497e-09,	2335.61,	3.869531e-08,	2335.83,	1.580932e-10,	2335.98,	3.274653e-11,	2335.54,	5.368893e-09
702.073,	0.963137,	1.741806e-06,	3,	2364.04,	2.729062e-12,	2363.89,	1.564106e-10,	2363.82,	3.325336e-09,	2363.74,	3.900461e-08,	2363.97,	1.572635e-10,	2364.12,	3.238833e-11,	2363.67,	2.326704e-09
710.103,	0.962476,	1.360351e-06,	3,	2392.17,	2.762459e-12,	2392.03,	1.535869e-10,	2391.95,	3.406253e-09,	2391.88,	3.861817e-08,	2392.1,	1.570633e-10,	2392.25,	3.375271e-11,	2391.8,	2.251481e-09
718.304,	0.961731,	2.085115e-06,	3,	2420.31,	2.773934e-12,	2420.16,	1.559939e-10,	2420.09,	3.332772e-09,	2420.01,	3.925639e-08,	2420.23,	1.563247e-10,	2420.38,	3.439752e-11,	2419.94,	2.228836e-09
726.488,	0.9611083,	1.818097e-06,	3,	2448.44,	2.540203e-12,	2448.29,	1.551558e-10,	2448.22,	3.359548e-09,	2448.14,	3.92278e-08,	2448.37,	1.575577e-10,	2448.52,	3.276968e-11,	2448.07,	2.235565e-09
734.604,	0.9604436,	1.970679e-06,	3,	2476.57,	2.758544e-12,	2476.42,	1.559575e-10,	2476.35,	3.376809e-09,	2476.28,	3.870623e-08,	2476.5,	1.549697e-10,	2476.65,	3.214121e-11,	2476.2,	2.225425e-09
742.757,	0.959859,	1.589224e-06,	3,	2504.71,	2.972041e-12,	2504.56,	1.570115e-10,	2504.48,	3.363501e-09,	2504.41,	3.870262e-08,	2504.63,	1.580836e-10,	2504.78,	3.411323e-11,	2504.34,	2.211919e-09
750.787,	0.9592248,	1.665515e-06,	3,	2532.84,	2.930452e-12,	2532.69,	1.564785e-10,	2532.62,	3.378294e-09,	2532.54,	3.88962e-08,	2532.77,	1.559442e-10,	2532.91,	3.161832e-11,	2532.47,	2.207954e-09
759.015,	0.9587244,	1.894388e-06,	3,	2560.97,	2.744146e-12,	2560.82,	1.533432e-10,	2560.75,	3.313511e-09,	2560.67,	3.863117e-08,	2560.9,	1.579773e-10,	2561.05,	3.240345e-11,	2560.6,	2.212276e-09
767.185,	0.9582048,	1.932533e-06,	3,	2589.11,	2.479636e-12,	2588.96,	1.564703e-10,	2588.88,	3.32356e-09,	2588.81,	3.875003e-08,	2589.03,	1.556395e-10,	2589.18,	3.3775e-11,	2588.73,	2.213236e-09
775.393,	0.9576776,	1.62737e-06,	3,	2617.24,	2.737239e-12,	2617.09,	1.551587e-10,	2617.02,	3.357796e-09,	2616.94,	3.880944e-08,	2617.16,	1.566182e-10,	2617.31,	3.374657e-11,	2616.87,	2.203492e-09
783.452,	0.957158,	2.085115e-06,	3,	2645.37,	2.686637e-12,	2645.22,	1.560196e-10,	2645.15,	3.372148e-09,	2645.07,	3.843255e-08,	2645.3,	1.554451e-10,	2645.45,	3.237876e-11,	2645,	4.390225e-09
791.745,	0.9567607,	1.741806e-06,	3,	2673.51,	2.693511e-12,	2673.36,	1.565691e-10,	2673.28,	3.392983e-09,	2673.21,	3.885911e-08,	2673.43,	1.575258e-10,	2673.58,	3.278209e-11,	2673.13,	6.896937e-09
799.869,	0.9563061,	2.046969e-06,	3,	2701.64,	2.830525e-12,	2701.49,	1.579551e-10,	2701.42,	3.389095e-09,	2701.34,	3.922112e-08,	2701.57,	1.581274e-10,	2701.71,	3.446707e-11,	2701.27,	6.983625e-09
808.017,	0.9559164,	1.932533e-06,	3,	2729.77,	2.61459e-12,	2729.62,	1.570457e-10,	2729.55,	3.369603e-09,	2729.47,	3.911708e-08,	2729.7,	1.561248e-10,	2729.85,	3.229143e-11,	2729.4,	6.972208e-09
816.254,	0.9554732,	1.284061e-06,	3,	2757.9,	2.90457e-12,	2757.76,	1.583694e-10,	2757.68,	3.372576e-09,	2757.61,	3.89726e-08,	2757.83,	1.577203e-10,	2757.98,	3.296288e-11,	2757.53,	7.006297e-09
824.502,	0.9551026,	1.398497e-06,	3,	2786.04,	2.83272e-12,	2785.89,	1.563651e-10,	2785.81,	3.377859e-09,	2785.74,	3.849414e-08,	2785.96,	1.574644e-10,	2786.11,	3.411248e-11,	2785.66,	7.001882e-09
832.642,	0.9547397,	2.085115e-06,	3,	2814.17,	2.823405e-12,	2814.02,	1.554329e-10,	2813.95,	3.409309e-09,	2813.87,	3.902959e-08,	2814.1,	1.588737e-10,	2814.25,	3.289954e-11,	2813.8,	7.031874e-09
840.798,	0.8649862,	-0.002498006,	3,	2842.3,	2.870761e-12,	2842.15,	1.572392e-10,	2842.08,	3.413561e-09,	2842.01,	3.878004e-08,	2842.23,	1.575861e-10,	2842.38,	3.366271e-11,	2841.93,	7.046354e-09
849.072,	0.8025152,	-0.002497548,	3,	2870.44,	2.848142e-12,	2870.29,	1.556194e-10,	2870.21,	3.387683e-09,	2870.14,	3.889638e-08,	2870.36,	1.57802e-10,	2870.51,	3.256735e-11,	2870.06,	6.999513e-09
857.141,	0.6775426,	-0.002497777,	3,	2898.57,	2.629939e-12,	2898.42,	1.571229e-10,	2898.35,	3.389635e-09,	2898.27,	3.873535e-08,	2898.5,	1.586758e-10,	2898.64,	3.461356e-11,	2898.2,	7.009035e-09
865.263,	0.305784,	-0.00249793,	3,	2926.7,	2.820414e-12,	2926.55,	1.548101e-10,	2926.48,	3.374272e-09,	2926.4,	3.881906e-08,	2926.63,	1.551563e-10,	2926.78,	3.272956e-11,	2926.33,	6.993187e-09
873.243,	0.2335289,	-0.002497968,	3,	2954.84,	2.722748e-12,	2954.69,	1.576619e-10,	2954.61,	3.345975e-09,	2954.54,	3.872207e-08,	2954.76,	1.574937e-10,	2954.91,	3.332147e-11,	2954.46,	2.482121e-09
881.398,	0.1768152,	-0.002497739,	3,	2982.97,	2.85737e-12,	2982.82,	1.569795e-10,	2982.75,	3.359007e-09,	2982.67,	3.848542e-08,	2982.89,	1.563329e-10,	2983.04,	3.283287e-11,	2982.6,	2.276436e-09
889.584,	0.138703,	-0.002497777,	3,	3011.1,	2.773618e-12,	3010.95,	1.599319e-10,	3010.88,	3.332799e-09,	3010.81,	3.887361e-08,	3011.03,	1.586794e-10,	3011.18,	3.222081e-11,	3010.73,	2.242582e-09
897.823,	0.112709,	-0.002497625,	3,	3039.23,	2.86629e-12,	3039.09,	1.577939e-10,	3039.01,	3.338112e-09,	3038.94,	3.797698e-08,	3039.16,	1.556217e-10,	3039.31,	3.332842e-11,	3038.86,	2.222561e-09
906.045,	0.08847246,	-0.002498044,	3,	3067.37,	2.7107e-12,	3067.22,	1.574976e-10,	3067.14,	3.33077e-09,	3067.07,	3.852628e-08,	3067.29,	1.569943e-10,	3067.44,	3.268741e-11,	3067,	2.224427e-09
914.196,	0.06645554,	-0.00249835,	3,	3095.5,	2.811058e-12,	3095.35,	1.561202e-10,	3095.28,	3.357313e-09,	3095.2,	3.870993e-08,	3095.43,	1.555128e-10,	3095.58,	3.252457e-11,	3095.13,	2.216065e-09
922.323,	0.05389408,	-0.002497777,	3,	3123.63,	2.589083e-12,	3123.48,	1.565855e-10,	3123.41,	3.36585e-09,	3123.34,	3.873538e-08,	3123.56,	1.571078e-10,	3123.71,	3.300485e-11,	3123.26,	2.221184e-09
930.424,	0.04890083,	-0.002498083,	3,	3151.77,	2.930697e-12,	3151.62,	1.579583e-10,	3151.55,	3.33549e-09,	3151.47,	3.868535e-08,	3151.69,	1.582563e-10,	3151.84,	3.202902e-11,	3151.4,	2.210412e-09
938.559,	0.04695625,	-0.002498273,	3,	3179.9,	2.558343e-12,	3179.75,	1.571924e-10,	3179.68,	3.344396e-09,	3179.6,	3.884632e-08,	3179.83,	1.567896e-10,	3179.98,	3.256244e-11,	3179.53,	2.209329e-09
946.69,	0.04602026,	-0.002498083,	3,	3208.03,	2.709122e-12,	3207.88,	1.581424e-10,	3207.81,	3.339957e-09,	3207.74,	3.871718e-08,	3207.96,	1.569524e-10,	3208.11,	3.316524e-11,	3207.66,	2.209188e-09
954.831,	0.04550451,	-0.002498006,	3,	3236.17,	2.93097e-12,	3236.02,	1.58933e-10,	3235.94,	3.374039e-09,	3235.87,	3.901392e-08,	3236.09,	1.57946e-10,	3236.24,	3.28e-11,	3235.8,	2.220438e-09
963.006,	0.04512246,	-0.002497892,	3,	3264.3,	2.88221e-12,	3264.15,	1.582256e-10,	3264.08,	3.395273e-09,	3264,	3.864143e-08,	3264.23,	1.57803e-10,	3264.375,	3.354549e-11,	3263.93,	8.3784e-09
971.2,	0.04482448,	-0.002497701,	3,	3292.43,	2.741081e-12,	3292.28,	1.581285e-10,	3292.21,	3.398888e-09,	3292.13,	3.870915e-08,	3292.36,	1.58636e-10,	3292.51,	3.290717e-11,	3292.06,	8.4921e-09
979.415,	0.04462199,	-0.002498006,	3,	3320.57,	2.797337e-12,	3320.42,	1.595728e-10,	3320.34,	3.384364e-09,	3320.27,	3.847709e-08,	3320.49,	1.571811e-10,	3320.64,	3.321348e-11,	3320.19,	8.551504e-09
987.544,	0.04453795,	-0.00249751,	3,	3348.7,	2.679673e-12,	3348.55,	1.587164e-10,	3348.48,	3.412659e-09,	3348.4,	3.872811e-08,	3348.63,	1.587865e-10,	3348.78,	3.261427e-11,	3348.33,	8.553925e-09
995.631,	0.04437367,	-0.002497777,	3,	3376.83,	2.929638e-12,	3376.68,	1.586005e-10,	3376.61,	3.383583e-09,	3376.54,	3.847622e-08,	3376.76,	1.566044e-10,	3376.91,	3.36458e-11,	3376.46,	8.581089e-09
1003.76,	0.04428198,	-0.002497854,	3,	3404.96,	2.79292e-12,	3404.82,	1.584476e-10,	3404.74,	3.396204e-09,	3404.67,	3.901951e-08,	3404.89,	1.578347e-10,	3405.04,	3.190491e-11,	3404.59,	8.596559e-09
1011.92,	0.04415591,	-0.00249751,	3,	3433.1,	2.78965e-12,	3432.95,	1.580191e-10,	3432.88,	3.3983e-09,	3432.8,	3.874792e-08,	3433.03,	1.587261e-10,	3433.17,	3.459792e-11,	3432.73,	8.584822e-09
1020.125,	0.04409096,	-0.002498388,	3,	3461.23,	2.85671e-12,	3461.08,	1.569596e-10,	3461.01,	3.383744e-09,	3460.93,	3.876587e-08,	3461.16,	1.578611e-10,	3461.31,	3.24932e-11,	3460.86,	8.584485e-09
1028.36,	0.04398399,	-0.00249751,	3,	3489.37,	2.863505e-12,	3489.22,	1.571607e-10,	3489.14,	3.374583e-09,	3489.07,	3.866793e-08,	3489.29,	1.569217e-10,	3489.44,	3.423039e-11,	3488.99,	8.562418e-09
1036.66,	0.04394196,	-0.002498159,	3,	3517.5,	2.68224e-12,	3517.35,	1.562499e-10,	3517.28,	3.370771e-09,	3517.2,	3.884088e-08,	3517.42,	1.584795e-10,	3517.57,	3.35307e-11,	3517.13,	8.593933e-09
1044.86,	0.0438541,	-0.002497739,	3,	3545.63,	2.730198e-12,	3545.48,	1.556894e-10,	3545.41,	3.331319e-09,	3545.33,	3.87026e-08,	3545.56,	1.557951e-10,	3545.71,	3.406942e-11,	3545.26,	3.347786e-09
1052.91,	0.04379297,	-0.002497968,	3,	3573.76,	2.792586e-12,	3573.62,	1.580286e-10,	3573.54,	3.328715e-09,	3573.47,	3.885304e-08,	3573.69,	1.577435e-10,	3573.84,	3.47811e-11,	3573.39,	2.356278e-09
1061.11,	0.04372802,	-0.002497243,	3,	3601.9,	3.094377e-12,	3601.75,	1.56766e-10,	3601.67,	3.293895e-09,	3601.6,	3.872742e-08,	3601.82,	1.568679e-10,	3601.97,	3.198023e-11,	3601.53,	2.274941e-09
1069.16,	0.043686,	-0.002497587,	3,	3630.03,	2.705193e-12,	3629.88,	1.583166e-10,	3629.81,	3.307887e-09,	3629.73,	3.834611e-08,	3629.96,	1.562902e-10,	3630.11,	3.377072e-11,	3629.66,	2.236721e-09
1077.36,	0.04370128,	-0.002498311,	3,	3658.16,	2.622323e-12,	3658.02,	1.582526e-10,	3657.94,	3.321956e-09,	3657.87,	3.859263e-08,	3658.09,	1.565922e-10,	3658.24,	3.161701e-11,	3657.79,	2.225611e-09
1085.53,	0.04357521,	-0.002497587,	3,	3686.3,	2.993674e-12,	3686.15,	1.547629e-10,	3686.07,	3.332445e-09,	3686,	3.83547e-08,	3686.22,	1.573996e-10,	3686.37,	3.267749e-11,	3685.92,	2.226384e-09
1093.64,	0.04352172,	-0.002498159,	3,	3714.43,	2.887726e-12,	3714.28,	1.574848e-10,	3714.21,	3.329547e-09,	3714.13,	3.844868e-08,	3714.36,	1.556137e-10,	3714.51,	3.353725e-11,	3714.06,	2.22137e-09
1101.92,	0.0435179,	-0.002497816,	3,	3742.56,	2.850837e-12,	3742.41,	1.574157e-10,	3742.34,	3.280785e-09,	3742.27,	3.853849e-08,	3742.49,	1.545861e-10,	3742.64,	3.226466e-11,	3742.19,	2.216046e-09
1110.01,	0.04349498,	-0.002497853,	3,	3770.7,	2.662545e-12,	3770.55,	1.552012e-10,	3770.47,	3.353193e-09,	3770.4,	3.845918e-08,	3770.62,	1.548997e-10,	3770.77,	3.232905e-11,	3770.32,	2.21358e-09
1118.26,	0.04342621,	-0.002497739,	3,	3798.83,	2.66583e-12,	3798.68,	1.569738e-10,	3798.61,	3.338362e-09,	3798.53,	3.828791e-08,	3798.76,	1.576549e-10,	3798.9,	3.216435e-11,	3798.46,	2.210741e-09
1126.43,	0.04342239,	-0.002497587,	3,	3826.96,	2.713447e-12,	3826.81,	1.569264e-10,	3826.74,	3.317113e-09,	3826.66,	3.83816e-08,	3826.89,	1.563935e-10,	3827.04,	3.49955e-11,	3826.59,	2.214374e-09
1134.67,	0.04339183,	-0.002498159,	3,	3855.1,	2.887076e-12,	3854.95,	1.551615e-10,	3854.87,	3.299168e-09,	3854.8,	3.832427e-08,	3855.02,	1.55272e-10,	3855.17,	3.399971e-11,	3854.72,	2.210311e-09
1142.74,	0.06159218,	2.008824e-06,	3,	3883.23,	2.761175e-12,	3883.08,	1.576289e-10,	3883.01,	3.311786e-09,	3882.93,	3.799326e-08,	3883.15,	1.550829e-10,	3883.3,	3.199193e-11,	3882.86,	2.208213e-09
1150.86,	0.07386328,	2.237697e-06,	3,	3911.36,	2.715501e-12,	3911.21,	1.575669e-10,	3911.14,	3.298443e-09,	3911.06,	3.805414e-08,	3911.29,	1.537259e-10,	3911.44,	3.207723e-11,	3910.99,	2.204136e-09
1158.93,	0.08268838,	1.970679e-06,	3,	3939.49,	6.31687e-11,	3939.35,	3.192183e-09,	3939.27,	3.391576e-09,	3939.2,	3.653948e-08,	3939.42,	1.200272e-09,	3939.57,	5.443601e-11,	3939.12,	2.232165e-09
1167.01,	0.08997005,	1.856243e-06,	3,	3967.63,	5.458431e-10,	3967.48,	5.240689e-08,	3967.4,	3.315515e-09,	3967.33,	7.776078e-09,	3967.55,	9.930605e-09,	3967.7,	1.013052e-10,	3967.26,	1.833348e-09
1175.08,	0.0963501,	2.237697e-06,	3,	3995.76,	6.519641e-10,	3995.61,	6.150184e-08,	3995.54,	3.250129e-09,	3995.46,	3.30662e-09,	3995.69,	1.318729e-08,	3995.84,	1.194819e-10,	3995.39,	1.785706e-09
1183.26,	0.1022068,	2.275842e-06,	3,	4023.89,	7.563677e-10,	4023.74,	7.123701e-08,	4023.67,	2.19656e-09,	4023.6,	7.407568e-12,	4023.82,	1.668086e-08,	4023.97,	1.240747e-10,	4023.52,	1.666878e-09
1191.45,	0.1077769,	2.123261e-06,	3,	4052.03,	7.551313e-10,	4051.88,	7.066226e-08,	4051.8,	1.64325e-09,	4051.73,	8.265124e-12,	4051.95,	1.669411e-08,	4052.1,	1.298286e-10,	4051.65,	1.607225e-09
1199.52,	0.1128389,	2.275842e-06,	3,	4080.16,	7.482273e-10,	4080.01,	7.068046e-08,	4079.94,	1.509705e-09,	4079.86,	8.9288e-12,	4080.09,	1.662643e-08,	4080.24,	1.024841e-10,	4079.79,	1.58823e-09
1207.53,	0.1175495,	2.275842e-06,	3,	4108.29,	7.4576e-10,	4108.14,	7.081144e-08,	4108.07,	1.446166e-09,	4108,	9.108127e-12,	4108.22,	1.650202e-08,	4108.37,	1.009416e-10,	4107.92,	1.574717e-09
1215.85,	0.1223402,	1.589224e-06,	3,	4136.43,	7.464422e-10,	4136.28,	7.068046e-08,	4136.2,	1.395114e-09,	4136.13,	9.686815e-12,	4136.35,	1.665586e-08,	4136.5,	1.001437e-10,	4136.05,	1.5614e-09
1224.02,	0.126982,	2.046969e-06,	3,	4164.56,	7.46866e-10,	4164.41,	7.060041e-08,	4164.34,	1.35988e-09,	4164.26,	8.484597e-12,	4164.48,	1.68686e-08,	4164.63,	1.016039e-10,	4164.19,	1.541951e-09
1232.16,	0.1315397,	2.352133e-06,	3,	,	,	,	,	,	,	,	,	,	,	,	,	,
1240.23,	0.136151,	1.970679e-06,	3,	,	,	,	,	,	,	,	,	,	,	,	,	,
1248.37,	0.1408882,	2.085115e-06,	3,	,	,	,	,	,	,	,	,	,	,	,	,	,
1256.56,	0.1457401,	2.390279e-06,	3,	,	,	,	,	,	,	,	,	,	,	,	,	,
1264.75,	0.1507334,	2.046969e-06,	3,	,	,	,	,	,	,	,	,	,	,	,	,	,
1272.875,	0.1557763,	1.779952e-06,	3,	,	,	,	,	,	,	,	,	,	,	,	,	,
1281.02,	0.161121,	2.046969e-06,	3,	,	,	,	,	,	,	,	,	,	,	,	,	,
1289.07,	0.1664352,	2.237697e-06,	3,	,	,	,	,	,	,	,	,	,	,	,	,	,
1297.3,	0.1720626,	2.237697e-06,	3,	,	,	,	,	,	,	,	,	,	,	,	,	,
1305.48,	0.1778047,	1.703661e-06,	3,	,	,	,	,	,	,	,	,	,	,	,	,	,
1313.63,	0.1835544,	1.894388e-06,	3,	,	,	,	,	,	,	,	,	,	,	,	,	,
1321.79,	0.1894072,	2.199551e-06,	3,	,	,	,	,	,	,	,	,	,	,	,	,	,
1329.95,	0.1954587,	1.551079e-06,	3,	,	,	,	,	,	,	,	,	,	,	,	,	,
1338.14,	0.2016248,	2.581006e-06,	3,	,	,	,	,	,	,	,	,	,	,	,	,	,
1346.12,	0.2076763,	2.352133e-06,	3,	,	,	,	,	,	,	,	,	,	,	,	,	,
1354.24,	0.2138386,	1.818097e-06,	3,	,	,	,	,	,	,	,	,	,	,	,	,	,
1362.27,	0.2198825,	1.551079e-06,	3,	,	,	,	,	,	,	,	,	,	,	,	,	,
1370.51,	0.2257315,	1.970679e-06,	3,	,	,	,	,	,	,	,	,	,	,	,	,	,
1378.6,	0.2313627,	1.932533e-06,	3,	,	,	,	,	,	,	,	,	,	,	,	,	,
1386.81,	0.2368221,	1.360352e-06,	3,	,	,	,	,	,	,	,	,	,	,	,	,	,
1395.01,	0.2420713,	1.932533e-06,	3,	,	,	,	,	,	,	,	,	,	,	,	,	,
1403.16,	0.2472021,	2.161406e-06,	3,	,	,	,	,	,	,	,	,	,	,	,	,	,
1411.38,	0.2524895,	1.741806e-06,	3,	,	,	,	,	,	,	,	,	,	,	,	,	,
1419.39,	0.257754,	2.237697e-06,	3,	,	,	,	,	,	,	,	,	,	,	,	,	,
1427.64,	0.2633433,	2.275842e-06,	3,	,	,	,	,	,	,	,	,	,	,	,	,	,
1435.8,	0.26907,	2.04697e-06,	3,	,	,	,	,	,	,	,	,	,	,	,	,	,
1443.93,	0.1365292,	-0.004998098,	3,	,	,	,	,	,	,	,	,	,	,	,	,	,
1452.12,	0.06478602,	-0.004998098,	3,	,	,	,	,	,	,	,	,	,	,	,	,	,
1460.22,	0.03820373,	-0.00499825,	3,	,	,	,	,	,	,	,	,	,	,	,	,	,
1468.43,	0.03473482,	-0.004997754,	3,	,	,	,	,	,	,	,	,	,	,	,	,	,
1476.7,	0.03402041,	-0.004997754,	3,	,	,	,	,	,	,	,	,	,	,	,	,	,
1484.86,	0.03371859,	-0.004997716,	3,	,	,	,	,	,	,	,	,	,	,	,	,	,
1492.99,	0.03361544,	-0.004998136,	3,	,	,	,	,	,	,	,	,	,	,	,	,	,
1501,	0.03345881,	-0.004997907,	3,	,	,	,	,	,	,	,	,	,	,	,	,	,
1509.09,	0.03348937,	-0.004997945,	3,	,	,	,	,	,	,	,	,	,	,	,	,	,
1517.18,	0.03336712,	-0.004997449,	3,	,	,	,	,	,	,	,	,	,	,	,	,	,
1525.38,	0.03342825,	-0.00499844,	3,	,	,	,	,	,	,	,	,	,	,	,	,	,
1533.55,	0.03331745,	-0.004998021,	3,	,	,	,	,	,	,	,	,	,	,	,	,	,
1541.79,	0.03329835,	-0.004997907,	3,	,	,	,	,	,	,	,	,	,	,	,	,	,
1550.09,	0.03328689,	-0.004997945,	3,	,	,	,	,	,	,	,	,	,	,	,	,	,
1558.36,	0.03330217,	-0.004998288,	3,	,	,	,	,	,	,	,	,	,	,	,	,	,
1566.54,	0.0332143,	-0.00499867,	3,	,	,	,	,	,	,	,	,	,	,	,	,	,
1574.77,	0.03322959,	-0.004998326,	3,	,	,	,	,	,	,	,	,	,	,	,	,	,
1582.99,	0.03320666,	-0.004998174,	3,	,	,	,	,	,	,	,	,	,	,	,	,	,
1591.14,	0.03320284,	-0.004998327,	3,	,	,	,	,	,	,	,	,	,	,	,	,	,
1599.37,	0.03314554,	-0.00499783,	3,	,	,	,	,	,	,	,	,	,	,	,	,	,
1607.55,	0.0331379,	-0.004997869,	3,	,	,	,	,	,	,	,	,	,	,	,	,	,
1615.76,	0.0331379,	-0.004998021,	3,	,	,	,	,	,	,	,	,	,	,	,	,	,
1623.97,	0.033157,	-0.004998022,	3,	,	,	,	,	,	,	,	,	,	,	,	,	,
1632.15,	0.03314554,	-0.004998594,	3,	,	,	,	,	,	,	,	,	,	,	,	,	,
1640.39,	0.03313025,	-0.004998402,	3,	,	,	,	,	,	,	,	,	,	,	,	,	,
1648.58,	0.03312644,	-0.004998326,	3,	,	,	,	,	,	,	,	,	,	,	,	,	,
1656.69,	0.03310733,	-0.00499844,	3,	,	,	,	,	,	,	,	,	,	,	,	,	,
1664.95,	0.03309969,	-0.004997754,	3,	,	,	,	,	,	,	,	,	,	,	,	,	,
1673.09,	0.03308441,	-0.00499867,	3,	,	,	,	,	,	,	,	,	,	,	,	,	,
1681.3,	0.03308059,	-0.004998365,	3,	,	,	,	,	,	,	,	,	,	,	,	,	,
1689.46,	0.03306913,	-0.004998288,	3,	,	,	,	,	,	,	,	,	,	,	,	,	,
1697.65,	0.03307295,	-0.004998136,	3,	,	,	,	,	,	,	,	,	,	,	,	,	,
1705.97,	0.03307677,	-0.004998174,	3,	,	,	,	,	,	,	,	,	,	,	,	,	,
1714.07,	0.03304239,	-0.004998632,	3,	,	,	,	,	,	,	,	,	,	,	,	,	,
1722.13,	0.03305385,	-0.004997793,	3,	,	,	,	,	,	,	,	,	,	,	,	,	,
1730.45,	0.03301564,	-0.004998365,	3,	,	,	,	,	,	,	,	,	,	,	,	,	,
1738.58,	0.04337272,	1.551079e-06,	3,	,	,	,	,	,	,	,	,	,	,	,	,	,
1746.72,	0.06176027,	2.313988e-06,	3,	,	,	,	,	,	,	,	,	,	,	,	,	,
1754.81,	0.07172003,	2.161406e-06,	3,	,	,	,	,	,	,	,	,	,	,	,	,	,
1762.95,	0.07906665,	1.741806e-06,	3,	,	,	,	,	,	,	,	,	,	,	,	,	,
1771.09,	0.08499208,	1.703661e-06,	3,	,	,	,	,	,	,	,	,	,	,	,	,	,
1779.2,	0.09029096,	2.161406e-06,	3,	,	,	,	,	,	,	,	,	,	,	,	,	,
1787.36,	0.09520781,	2.275842e-06,	3,	,	,	,	,	,	,	,	,	,	,	,	,	,
1795.45,	0.09975025,	2.199551e-06,	3,	,	,	,	,	,	,	,	,	,	,	,	,	,
1803.68,	0.1041513,	1.62737e-06,	3,	,	,	,	,	,	,	,	,	,	,	,	,	,
1811.64,	0.1082048,	2.237697e-06,	3,	,	,	,	,	,	,	,	,	,	,	,	,	,
1819.76,	0.1122124,	1.894388e-06,	3,	,	,	,	,	,	,	,	,	,	,	,	,	,
1827.91,	0.1159907,	2.161406e-06,	3,	,	,	,	,	,	,	,	,	,	,	,	,	,
1836.13,	0.1198608,	1.474788e-06,	3,	,	,	,	,	,	,	,	,	,	,	,	,	,
1844.2,	0.1235436,	1.970679e-06,	3,	,	,	,	,	,	,	,	,	,	,	,	,	,
1852.31,	0.1271501,	2.237697e-06,	3,	,	,	,	,	,	,	,	,	,	,	,	,	,
1860.49,	0.1309132,	2.313988e-06,	3,	,	,	,	,	,	,	,	,	,	,	,	,	,
1868.65,	0.1345999,	2.123261e-06,	3,	,	,	,	,	,	,	,	,	,	,	,	,	,
1876.81,	0.1383248,	1.512933e-06,	3,	,	,	,	,	,	,	,	,	,	,	,	,	,
1885.02,	0.1421222,	2.504715e-06,	3,	,	,	,	,	,	,	,	,	,	,	,	,	,
1893.26,	0.1460228,	1.856242e-06,	3,	,	,	,	,	,	,	,	,	,	,	,	,	,
1901.45,	0.1499579,	1.779952e-06,	3,	,	,	,	,	,	,	,	,	,	,	,	,	,
1909.59,	0.1539884,	1.970679e-06,	3,	,	,	,	,	,	,	,	,	,	,	,	,	,
1917.7,	0.1580533,	1.932533e-06,	3,	,	,	,	,	,	,	,	,	,	,	,	,	,
1925.94,	0.1622786,	2.161406e-06,	3,	,	,	,	,	,	,	,	,	,	,	,	,	,
1934.17,	0.1666529,	2.161406e-06,	3,	,	,	,	,	,	,	,	,	,	,	,	,	,
1942.25,	0.1709127,	2.085115e-06,	3,	,	,	,	,	,	,	,	,	,	,	,	,	,
1950.43,	0.1754169,	2.237697e-06,	3,	,	,	,	,	,	,	,	,	,	,	,	,	,
1958.6,	0.1799632,	2.313988e-06,	3,	,	,	,	,	,	,	,	,	,	,	,	,	,
1966.7,	0.1845706,	1.398497e-06,	3,	,	,	,	,	,	,	,	,	,	,	,	,	,
1974.92,	0.189327,	2.123261e-06,	3,	,	,	,	,	,	,	,	,	,	,	,	,	,
1983.05,	0.1941674,	2.237697e-06,	3,	,	,	,	,	,	,	,	,	,	,	,	,	,
1991.22,	0.1991874,	2.161406e-06,	3,	,	,	,	,	,	,	,	,	,	,	,	,	,
1999.44,	0.2042647,	2.123261e-06,	3,	,	,	,	,	,	,	,	,	,	,	,	,	,
2007.56,	0.2093076,	2.313988e-06,	3,	,	,	,	,	,	,	,	,	,	,	,	,	,
2015.62,	0.2143773,	1.741806e-06,	3,	,	,	,	,	,	,	,	,	,	,	,	,	,
2023.72,	0.2192903,	1.818097e-06,	3,	,	,	,	,	,	,	,	,	,	,	,	,	,
2031.93,	0.2241766,	2.313988e-06,	3,	,	,	,	,	,	,	,	,	,	,	,	,	,
2040.01,	0.1082621,	-0.009998394,	3,	,	,	,	,	,	,	,	,	,	,	,	,	,
2048.25,	0.0285114,	-0.009997899,	3,	,	,	,	,	,	,	,	,	,	,	,	,	,
2056.35,	0.02517238,	-0.009998356,	3,	,	,	,	,	,	,	,	,	,	,	,	,	,
2064.53,	0.02468719,	-0.009998585,	3,	,	,	,	,	,	,	,	,	,	,	,	,	,
2072.63,	0.02452673,	-0.00999809,	3,	,	,	,	,	,	,	,	,	,	,	,	,	,
2080.7,	0.02449235,	-0.009998471,	3,	,	,	,	,	,	,	,	,	,	,	,	,	,
2088.77,	0.02431661,	-0.009998051,	3,	,	,	,	,	,	,	,	,	,	,	,	,	,
2096.81,	0.02430897,	-0.009998165,	3,	,	,	,	,	,	,	,	,	,	,	,	,	,
2105.01,	0.02426695,	-0.009998203,	3,	,	,	,	,	,	,	,	,	,	,	,	,	,
2113.17,	0.02431279,	-0.009997822,	3,	,	,	,	,	,	,	,	,	,	,	,	,	,
2121.32,	0.0242402,	-0.009998165,	3,	,	,	,	,	,	,	,	,	,	,	,	,	,
2129.47,	0.0242211,	-0.009998661,	3,	,	,	,	,	,	,	,	,	,	,	,	,	,
2137.53,	0.02423256,	-0.009997975,	3,	,	,	,	,	,	,	,	,	,	,	,	,	,
2145.55,	0.02416761,	-0.009997937,	3,	,	,	,	,	,	,	,	,	,	,	,	,	,
2153.56,	0.024202,	-0.00999828,	3,	,	,	,	,	,	,	,	,	,	,	,	,	,
2161.71,	0.02418672,	-0.009998051,	3,	,	,	,	,	,	,	,	,	,	,	,	,	,
2170.08,	0.02415615,	-0.00999809,	3,	,	,	,	,	,	,	,	,	,	,	,	,	,
2178.16,	0.02414087,	-0.009998051,	3,	,	,	,	,	,	,	,	,	,	,	,	,	,
2186.35,	0.02415998,	-0.009997975,	3,	,	,	,	,	,	,	,	,	,	,	,	,	,
2194.44,	0.02411413,	-0.00999809,	3,	,	,	,	,	,	,	,	,	,	,	,	,	,
2202.58,	0.02414469,	-0.009998127,	3,	,	,	,	,	,	,	,	,	,	,	,	,	,
2210.64,	0.02412559,	-0.009998241,	3,	,	,	,	,	,	,	,	,	,	,	,	,	,
2218.8,	0.02411413,	-0.009997784,	3,	,	,	,	,	,	,	,	,	,	,	,	,	,
2226.98,	0.02413323,	-0.00999809,	3,	,	,	,	,	,	,	,	,	,	,	,	,	,
2235.13,	0.02414469,	-0.009998127,	3,	,	,	,	,	,	,	,	,	,	,	,	,	,
2243.43,	0.02413323,	-0.00999809,	3,	,	,	,	,	,	,	,	,	,	,	,	,	,
2251.69,	0.02418672,	-0.009998623,	3,	,	,	,	,	,	,	,	,	,	,	,	,	,
2259.89,	0.02415616,	-0.009997708,	3,	,	,	,	,	,	,	,	,	,	,	,	,	,
2268.12,	0.02416379,	-0.009998013,	3,	,	,	,	,	,	,	,	,	,	,	,	,	,
2276.24,	0.02409885,	-0.009997403,	3,	,	,	,	,	,	,	,	,	,	,	,	,	,
2284.375,	0.02416761,	-0.009998051,	3,	,	,	,	,	,	,	,	,	,	,	,	,	,
2292.59,	0.02410267,	-0.009998165,	3,	,	,	,	,	,	,	,	,	,	,	,	,	,
2300.61,	0.02410267,	-0.009997899,	3,	,	,	,	,	,	,	,	,	,	,	,	,	,
2308.67,	0.02411031,	-0.009997822,	3,	,	,	,	,	,	,	,	,	,	,	,	,	,
2316.82,	0.02409885,	-0.009998471,	3,	,	,	,	,	,	,	,	,	,	,	,	,	,
2324.92,	0.02411031,	-0.00999809,	3,	,	,	,	,	,	,	,	,	,	,	,	,	,
2333.05,	0.02406064,	-0.009998318,	3,	,	,	,	,	,	,	,	,	,	,	,	,	,
2340.99,	0.04360577,	1.436643e-06,	3,	,	,	,	,	,	,	,	,	,	,	,	,	,
2349.125,	0.06017863,	1.779952e-06,	3,	,	,	,	,	,	,	,	,	,	,	,	,	,
2357.38,	0.06937813,	1.970679e-06,	3,	,	,	,	,	,	,	,	,	,	,	,	,	,
2365.4,	0.07565122,	1.589224e-06,	3,	,	,	,	,	,	,	,	,	,	,	,	,	,
2373.49,	0.08088133,	2.352133e-06,	3,	,	,	,	,	,	,	,	,	,	,	,	,	,
2381.54,	0.08546963,	1.818097e-06,	3,	,	,	,	,	,	,	,	,	,	,	,	,	,
2389.67,	0.08962621,	2.352133e-06,	3,	,	,	,	,	,	,	,	,	,	,	,	,	,
2397.69,	0.09353447,	1.970679e-06,	3,	,	,	,	,	,	,	,	,	,	,	,	,	,
2405.68,	0.09719823,	2.085115e-06,	3,	,	,	,	,	,	,	,	,	,	,	,	,	,
2413.81,	0.1008314,	1.818097e-06,	3,	,	,	,	,	,	,	,	,	,	,	,	,	,
2421.88,	0.1043042,	1.589224e-06,	3,	,	,	,	,	,	,	,	,	,	,	,	,	,
2430.05,	0.1076317,	2.390279e-06,	3,	,	,	,	,	,	,	,	,	,	,	,	,	,
2438.21,	0.1109555,	1.665515e-06,	3,	,	,	,	,	,	,	,	,	,	,	,	,	,
2446.32,	0.1141531,	1.894388e-06,	3,	,	,	,	,	,	,	,	,	,	,	,	,	,
2454.42,	0.1172515,	2.046969e-06,	3,	,	,	,	,	,	,	,	,	,	,	,	,	,
2462.64,	0.12043,	1.856242e-06,	3,	,	,	,	,	,	,	,	,	,	,	,	,	,
2470.81,	0.1235246,	2.12326e-06,	3,	,	,	,	,	,	,	,	,	,	,	,	,	,
2479,	0.1265809,	1.665515e-06,	3,	,	,	,	,	,	,	,	,	,	,	,	,	,
2487.17,	0.1296677,	1.818097e-06,	3,	,	,	,	,	,	,	,	,	,	,	,	,	,
2495.3,	0.132682,	1.62737e-06,	3,	,	,	,	,	,	,	,	,	,	,	,	,	,
2503.39,	0.135746,	2.313988e-06,	3,	,	,	,	,	,	,	,	,	,	,	,	,	,
2511.52,	0.1389093,	1.779952e-06,	3,	,	,	,	,	,	,	,	,	,	,	,	,	,
2519.67,	0.1420649,	2.237697e-06,	3,	,	,	,	,	,	,	,	,	,	,	,	,	,
2527.73,	0.145232,	1.703661e-06,	3,	,	,	,	,	,	,	,	,	,	,	,	,	,
2535.88,	0.1484985,	2.313988e-06,	3,	,	,	,	,	,	,	,	,	,	,	,	,	,
2544.1,	0.1517763,	2.123261e-06,	3,	,	,	,	,	,	,	,	,	,	,	,	,	,
2552.18,	0.1551841,	1.856242e-06,	3,	,	,	,	,	,	,	,	,	,	,	,	,	,
2560.32,	0.1585767,	1.856242e-06,	3,	,	,	,	,	,	,	,	,	,	,	,	,	,
2568.52,	0.1620914,	1.779952e-06,	3,	,	,	,	,	,	,	,	,	,	,	,	,	,
2576.68,	0.1656444,	1.932533e-06,	3,	,	,	,	,	,	,	,	,	,	,	,	,	,
2584.84,	0.1693043,	2.04697e-06,	3,	,	,	,	,	,	,	,	,	,	,	,	,	,
2592.96,	0.1729681,	2.237697e-06,	3,	,	,	,	,	,	,	,	,	,	,	,	,	,
2601.13,	0.1768038,	1.62737e-06,	3,	,	,	,	,	,	,	,	,	,	,	,	,	,
2609.15,	0.1805401,	2.123261e-06,	3,	,	,	,	,	,	,	,	,	,	,	,	,	,
2617.29,	0.1844216,	2.008824e-06,	3,	,	,	,	,	,	,	,	,	,	,	,	,	,
2625.38,	0.1884177,	2.04697e-06,	3,	,	,	,	,	,	,	,	,	,	,	,	,	,
2633.56,	0.1925056,	2.008824e-06,	3,	,	,	,	,	,	,	,	,	,	,	,	,	,
2641.74,	0.03048272,	-0.01499778,	3,	,	,	,	,	,	,	,	,	,	,	,	,	,
2649.92,	0.02048476,	-0.01499793,	3,	,	,	,	,	,	,	,	,	,	,	,	,	,
2658.14,	0.01977417,	-0.01499762,	3,	,	,	,	,	,	,	,	,	,	,	,	,	,
2666.36,	0.01962135,	-0.01499789,	3,	,	,	,	,	,	,	,	,	,	,	,	,	,
2674.32,	0.01957168,	-0.01499781,	3,	,	,	,	,	,	,	,	,	,	,	,	,	,
2682.5,	0.01949146,	-0.01499793,	3,	,	,	,	,	,	,	,	,	,	,	,	,	,
2690.64,	0.01941505,	-0.01499804,	3,	,	,	,	,	,	,	,	,	,	,	,	,	,
2698.75,	0.01946089,	-0.01499816,	3,	,	,	,	,	,	,	,	,	,	,	,	,	,
2706.96,	0.01944561,	-0.01499762,	3,	,	,	,	,	,	,	,	,	,	,	,	,	,
2715.16,	0.01944943,	-0.01499755,	3,	,	,	,	,	,	,	,	,	,	,	,	,	,
2723.25,	0.01940741,	-0.01499778,	3,	,	,	,	,	,	,	,	,	,	,	,	,	,
2731.3,	0.01944561,	-0.01499846,	3,	,	,	,	,	,	,	,	,	,	,	,	,	,
2739.49,	0.0193501,	-0.01499797,	3,	,	,	,	,	,	,	,	,	,	,	,	,	,
2747.68,	0.01941887,	-0.01499812,	3,	,	,	,	,	,	,	,	,	,	,	,	,	,
2755.82,	0.0193883,	-0.01499755,	3,	,	,	,	,	,	,	,	,	,	,	,	,	,
2763.99,	0.01936156,	-0.01499743,	3,	,	,	,	,	,	,	,	,	,	,	,	,	,
2772.1,	0.0193692,	-0.014998,	3,	,	,	,	,	,	,	,	,	,	,	,	,	,
2780.07,	0.01935392,	-0.01499778,	3,	,	,	,	,	,	,	,	,	,	,	,	,	,
2788.26,	0.01938066,	-0.01499747,	3,	,	,	,	,	,	,	,	,	,	,	,	,	,
2796.42,	0.01931954,	-0.01499747,	3,	,	,	,	,	,	,	,	,	,	,	,	,	,
2804.68,	0.01932336,	-0.01499743,	3,	,	,	,	,	,	,	,	,	,	,	,	,	,
2812.78,	0.01931572,	-0.01499778,	3,	,	,	,	,	,	,	,	,	,	,	,	,	,
2820.88,	0.01932336,	-0.01499801,	3,	,	,	,	,	,	,	,	,	,	,	,	,	,
2829.1,	0.01934246,	-0.01499743,	3,	,	,	,	,	,	,	,	,	,	,	,	,	,
2837.3,	0.01935392,	-0.01499766,	3,	,	,	,	,	,	,	,	,	,	,	,	,	,
2845.49,	0.01928897,	-0.01499778,	3,	,	,	,	,	,	,	,	,	,	,	,	,	,
2853.51,	0.0193119,	-0.01499781,	3,	,	,	,	,	,	,	,	,	,	,	,	,	,
2861.69,	0.01934246,	-0.01499762,	3,	,	,	,	,	,	,	,	,	,	,	,	,	,
2869.97,	0.01925459,	-0.01499854,	3,	,	,	,	,	,	,	,	,	,	,	,	,	,
2878.1,	0.0193119,	-0.0149977,	3,	,	,	,	,	,	,	,	,	,	,	,	,	,
2886.28,	0.01926223,	-0.01499785,	3,	,	,	,	,	,	,	,	,	,	,	,	,	,
2894.44,	0.01928897,	-0.01499789,	3,	,	,	,	,	,	,	,	,	,	,	,	,	,
2902.69,	0.01928515,	-0.01499797,	3,	,	,	,	,	,	,	,	,	,	,	,	,	,
2910.68,	0.01930426,	-0.01499785,	3,	,	,	,	,	,	,	,	,	,	,	,	,	,
2918.69,	0.01930043,	-0.01499793,	3,	,	,	,	,	,	,	,	,	,	,	,	,	,
2926.91,	0.01928134,	-0.0149977,	3,	,	,	,	,	,	,	,	,	,	,	,	,	,
2934.95,	0.01926987,	-0.01499759,	3,	,	,	,	,	,	,	,	,	,	,	,	,	,
2943.13,	0.04506134,	2.123261e-06,	3,	,	,	,	,	,	,	,	,	,	,	,	,	,
2951.2,	0.05912421,	1.856243e-06,	3,	,	,	,	,	,	,	,	,	,	,	,	,	,
2959.19,	0.06716613,	2.199552e-06,	3,	,	,	,	,	,	,	,	,	,	,	,	,	,
2967.35,	0.07317178,	1.779952e-06,	3,	,	,	,	,	,	,	,	,	,	,	,	,	,
2975.39,	0.07785559,	2.085115e-06,	3,	,	,	,	,	,	,	,	,	,	,	,	,	,
2983.4,	0.08205802,	1.970679e-06,	3,	,	,	,	,	,	,	,	,	,	,	,	,	,
2991.57,	0.08585549,	1.551079e-06,	3,	,	,	,	,	,	,	,	,	,	,	,	,	,
2999.86,	0.08959947,	1.665515e-06,	3,	,	,	,	,	,	,	,	,	,	,	,	,	,
3007.93,	0.09289265,	2.313988e-06,	3,	,	,	,	,	,	,	,	,	,	,	,	,	,
3016.03,	0.09618965,	1.894388e-06,	3,	,	,	,	,	,	,	,	,	,	,	,	,	,
3024.15,	0.09934911,	1.856242e-06,	3,	,	,	,	,	,	,	,	,	,	,	,	,	,
3032.34,	0.102436,	2.199551e-06,	3,	,	,	,	,	,	,	,	,	,	,	,	,	,
3040.43,	0.1054503,	1.932533e-06,	3,	,	,	,	,	,	,	,	,	,	,	,	,	,
3048.72,	0.1084225,	2.161406e-06,	3,	,	,	,	,	,	,	,	,	,	,	,	,	,
3056.9,	0.1113222,	1.856243e-06,	3,	,	,	,	,	,	,	,	,	,	,	,	,	,
3064.97,	0.1141646,	2.008824e-06,	3,	,	,	,	,	,	,	,	,	,	,	,	,	,
3073.2,	0.1169955,	2.237697e-06,	3,	,	,	,	,	,	,	,	,	,	,	,	,	,
3081.42,	0.1197309,	1.62737e-06,	3,	,	,	,	,	,	,	,	,	,	,	,	,	,
3089.54,	0.1224663,	1.589224e-06,	3,	,	,	,	,	,	,	,	,	,	,	,	,	,
3097.71,	0.1252552,	1.856242e-06,	3,	,	,	,	,	,	,	,	,	,	,	,	,	,
3105.98,	0.1280861,	1.741806e-06,	3,	,	,	,	,	,	,	,	,	,	,	,	,	,
3114.21,	0.1308865,	1.818097e-06,	3,	,	,	,	,	,	,	,	,	,	,	,	,	,
3122.38,	0.1335798,	1.779952e-06,	3,	,	,	,	,	,	,	,	,	,	,	,	,	,
3130.54,	0.1363955,	2.085115e-06,	3,	,	,	,	,	,	,	,	,	,	,	,	,	,
3138.55,	0.13915,	2.237697e-06,	3,	,	,	,	,	,	,	,	,	,	,	,	,	,
3146.74,	0.1420305,	1.665515e-06,	3,	,	,	,	,	,	,	,	,	,	,	,	,	,
3154.83,	0.144892,	2.313988e-06,	3,	,	,	,	,	,	,	,	,	,	,	,	,	,
3163.01,	0.1478146,	1.932533e-06,	3,	,	,	,	,	,	,	,	,	,	,	,	,	,
3171.09,	0.1507334,	1.665515e-06,	3,	,	,	,	,	,	,	,	,	,	,	,	,	,
3179.16,	0.1537859,	1.741806e-06,	3,	,	,	,	,	,	,	,	,	,	,	,	,	,
3187.32,	0.1568193,	2.390279e-06,	3,	,	,	,	,	,	,	,	,	,	,	,	,	,
3195.61,	0.1600208,	2.046969e-06,	3,	,	,	,	,	,	,	,	,	,	,	,	,	,
3203.72,	0.1631917,	2.008824e-06,	3,	,	,	,	,	,	,	,	,	,	,	,	,	,
3211.81,	0.1664046,	1.894388e-06,	3,	,	,	,	,	,	,	,	,	,	,	,	,	,
3219.97,	0.1696711,	1.894388e-06,	3,	,	,	,	,	,	,	,	,	,	,	,	,	,
3228.04,	0.1729681,	2.313988e-06,	3,	,	,	,	,	,	,	,	,	,	,	,	,	,
3236.09,	0.17633,	1.245915e-06,	3,	,	,	,	,	,	,	,	,	,	,	,	,	,
3244.15,	0.01883053,	-0.0199983,	3,	,	,	,	,	,	,	,	,	,	,	,	,	,
3252.3,	0.0166529,	-0.01999826,	3,	,	,	,	,	,	,	,	,	,	,	,	,	,
3260.51,	0.01643514,	-0.01999849,	3,	,	,	,	,	,	,	,	,	,	,	,	,	,
3268.72,	0.01635109,	-0.01999796,	3,	,	,	,	,	,	,	,	,	,	,	,	,	,
3276.88,	0.01628997,	-0.01999788,	3,	,	,	,	,	,	,	,	,	,	,	,	,	,
3285.1,	0.0162594,	-0.01999823,	3,	,	,	,	,	,	,	,	,	,	,	,	,	,
3293.19,	0.0162594,	-0.01999788,	3,	,	,	,	,	,	,	,	,	,	,	,	,	,
3301.32,	0.01627469,	-0.0199983,	3,	,	,	,	,	,	,	,	,	,	,	,	,	,
3309.4,	0.01626704,	-0.01999834,	3,	,	,	,	,	,	,	,	,	,	,	,	,	,
3317.57,	0.01619828,	-0.01999815,	3,	,	,	,	,	,	,	,	,	,	,	,	,	,
3325.66,	0.01612951,	-0.01999784,	3,	,	,	,	,	,	,	,	,	,	,	,	,	,
3333.85,	0.01615243,	-0.01999807,	3,	,	,	,	,	,	,	,	,	,	,	,	,	,
3342,	0.01616772,	-0.01999815,	3,	,	,	,	,	,	,	,	,	,	,	,	,	,
3350.2,	0.01617917,	-0.01999819,	3,	,	,	,	,	,	,	,	,	,	,	,	,	,
3358.22,	0.01617154,	-0.01999815,	3,	,	,	,	,	,	,	,	,	,	,	,	,	,
3366.41,	0.01616772,	-0.0199983,	3,	,	,	,	,	,	,	,	,	,	,	,	,	,
3374.53,	0.01616007,	-0.01999815,	3,	,	,	,	,	,	,	,	,	,	,	,	,	,
3382.59,	0.01612569,	-0.01999792,	3,	,	,	,	,	,	,	,	,	,	,	,	,	,
3390.68,	0.01612569,	-0.01999777,	3,	,	,	,	,	,	,	,	,	,	,	,	,	,
3398.8,	0.01617918,	-0.01999777,	3,	,	,	,	,	,	,	,	,	,	,	,	,	,
3406.97,	0.01612951,	-0.01999811,	3,	,	,	,	,	,	,	,	,	,	,	,	,	,
3415.13,	0.01609513,	-0.01999792,	3,	,	,	,	,	,	,	,	,	,	,	,	,	,
3423.39,	0.01608749,	-0.01999773,	3,	,	,	,	,	,	,	,	,	,	,	,	,	,
3431.48,	0.01609895,	-0.01999811,	3,	,	,	,	,	,	,	,	,	,	,	,	,	,
3439.66,	0.01608749,	-0.01999823,	3,	,	,	,	,	,	,	,	,	,	,	,	,	,
3447.68,	0.01611423,	-0.0199983,	3,	,	,	,	,	,	,	,	,	,	,	,	,	,
3455.84,	0.01606456,	-0.01999777,	3,	,	,	,	,	,	,	,	,	,	,	,	,	,
3464.06,	0.01604164,	-0.01999842,	3,	,	,	,	,	,	,	,	,	,	,	,	,	,
3472.1,	0.01601872,	-0.01999803,	3,	,	,	,	,	,	,	,	,	,	,	,	,	,
3480.21,	0.01601872,	-0.01999758,	3,	,	,	,	,	,	,	,	,	,	,	,	,	,
3488.43,	0.0160531,	-0.01999826,	3,	,	,	,	,	,	,	,	,	,	,	,	,	,
3496.61,	0.01611805,	-0.01999811,	3,	,	,	,	,	,	,	,	,	,	,	,	,	,
3504.85,	0.01611041,	-0.01999849,	3,	,	,	,	,	,	,	,	,	,	,	,	,	,
3513.11,	0.01607602,	-0.01999773,	3,	,	,	,	,	,	,	,	,	,	,	,	,	,
3521.18,	0.01600726,	-0.019998,	3,	,	,	,	,	,	,	,	,	,	,	,	,	,
3529.34,	0.0160531,	-0.01999769,	3,	,	,	,	,	,	,	,	,	,	,	,	,	,
3537.44,	0.0224217,	1.779952e-06,	3,	,	,	,	,	,	,	,	,	,	,	,	,	,
3545.72,	0.04725425,	1.932533e-06,	3,	,	,	,	,	,	,	,	,	,	,	,	,	,
3553.8,	0.05852822,	1.856243e-06,	3,	,	,	,	,	,	,	,	,	,	,	,	,	,
3562.03,	0.06572966,	2.542861e-06,	3,	,	,	,	,	,	,	,	,	,	,	,	,	,
3570.13,	0.07107821,	2.352133e-06,	3,	,	,	,	,	,	,	,	,	,	,	,	,	,
3578.27,	0.0755901,	1.703661e-06,	3,	,	,	,	,	,	,	,	,	,	,	,	,	,
3586.27,	0.07947543,	1.589224e-06,	3,	,	,	,	,	,	,	,	,	,	,	,	,	,
3594.51,	0.08299401,	1.589224e-06,	3,	,	,	,	,	,	,	,	,	,	,	,	,	,
3602.74,	0.08631776,	2.12326e-06,	3,	,	,	,	,	,	,	,	,	,	,	,	,	,
3610.85,	0.08940846,	2.123261e-06,	3,	,	,	,	,	,	,	,	,	,	,	,	,	,
3619.06,	0.09248769,	2.199551e-06,	3,	,	,	,	,	,	,	,	,	,	,	,	,	,
3627.27,	0.09540264,	1.741806e-06,	3,	,	,	,	,	,	,	,	,	,	,	,	,	,
3635.35,	0.09822209,	1.703661e-06,	3,	,	,	,	,	,	,	,	,	,	,	,	,	,
3643.54,	0.1010072,	1.970679e-06,	3,	,	,	,	,	,	,	,	,	,	,	,	,	,
3651.74,	0.1037502,	2.619151e-06,	3,	,	,	,	,	,	,	,	,	,	,	,	,	,
3659.94,	0.1064092,	2.504715e-06,	3,	,	,	,	,	,	,	,	,	,	,	,	,	,
3667.98,	0.1090262,	2.352133e-06,	3,	,	,	,	,	,	,	,	,	,	,	,	,	,
3676.2,	0.1116355,	1.703661e-06,	3,	,	,	,	,	,	,	,	,	,	,	,	,	,
3684.31,	0.114199,	2.008824e-06,	3,	,	,	,	,	,	,	,	,	,	,	,	,	,
3692.55,	0.1167701,	2.085115e-06,	3,	,	,	,	,	,	,	,	,	,	,	,	,	,
3700.7,	0.1192877,	2.085115e-06,	3,	,	,	,	,	,	,	,	,	,	,	,	,	,
3708.88,	0.1217557,	1.589224e-06,	3,	,	,	,	,	,	,	,	,	,	,	,	,	,
3717.02,	0.1242428,	2.199551e-06,	3,	,	,	,	,	,	,	,	,	,	,	,	,	,
3725.15,	0.1267222,	2.161406e-06,	3,	,	,	,	,	,	,	,	,	,	,	,	,	,
3733.3,	0.1292322,	1.589224e-06,	3,	,	,	,	,	,	,	,	,	,	,	,	,	,
3741.52,	0.1317957,	1.818097e-06,	3,	,	,	,	,	,	,	,	,	,	,	,	,	,
3749.69,	0.1342598,	1.360351e-06,	3,	,	,	,	,	,	,	,	,	,	,	,	,	,
3757.87,	0.1368615,	1.970679e-06,	3,	,	,	,	,	,	,	,	,	,	,	,	,	,
3766.04,	0.1394021,	2.352133e-06,	3,	,	,	,	,	,	,	,	,	,	,	,	,	,
3774.18,	0.1420305,	1.894388e-06,	3,	,	,	,	,	,	,	,	,	,	,	,	,	,
3782.34,	0.1446399,	2.04697e-06,	3,	,	,	,	,	,	,	,	,	,	,	,	,	,
3790.47,	0.1473332,	1.360352e-06,	3,	,	,	,	,	,	,	,	,	,	,	,	,	,
3798.55,	0.1500381,	1.932533e-06,	3,	,	,	,	,	,	,	,	,	,	,	,	,	,
3806.66,	0.1528002,	1.62737e-06,	3,	,	,	,	,	,	,	,	,	,	,	,	,	,
3814.84,	0.1555967,	1.818097e-06,	3,	,	,	,	,	,	,	,	,	,	,	,	,	,
3823.03,	0.1584391,	1.970679e-06,	3,	,	,	,	,	,	,	,	,	,	,	,	,	,
3831.12,	0.1612738,	1.779952e-06,	3,	,	,	,	,	,	,	,	,	,	,	,	,	,
3836.11,	0.1630885,	1.970679e-06,	3,	,	,	,	,	,	,	,	,	,	,	,	,	,