File: Quantification/development/OERonPt_RnD1_newMS.csv
ixdat version = 0.2.2dev
name = 2022-04-07 10_10_27 OER on Pt repeatability.tsv
technique = EC-MS
tstamp = 1649319027.0
backend_name = BackendBase(none, address=none)
id = 2
timecol 'time/s' for: 'Ewe/V' and 'I/mA' and 'selector'
timecol 'M40-x' for: 'M40'
timecol 'M28-x' for: 'M28'
timecol 'M18-x' for: 'M18'
timecol 'M4-x' for: 'M4'
timecol 'M32-x' for: 'M32'
timecol 'M44-x' for: 'M44'
timecol 'M2-x' for: 'M2'
aliases = {"t": ["time/s"], "raw_potential": ["Ewe/V", "<Ewe>/V"], "raw_current": ["I/mA", "<I>/mA"], "cycle": ["cycle number"]}
N_header_lines = 18

time/s,	Ewe/V,	I/mA,	selector,	M40-x,	M40,	M28-x,	M28,	M18-x,	M18,	M4-x,	M4,	M32-x,	M32,	M44-x,	M44,	M2-x,	M2
657.747,	0.9211814,	0.0001182044,	0,	0.909342,	9.104063e-10,	0.760438,	8.567984e-08,	0.686486,	3.883292e-09,	0.611534,	1.170304e-12,	0.83539,	2.100417e-08,	0.984294,	1.250427e-10,	0.537582,	1.776322e-09
666.903,	0.9211699,	7.736029e-05,	0,	35.7948,	8.998224e-10,	35.6458,	8.449386e-08,	35.5718,	3.51074e-09,	35.4968,	4.004524e-12,	35.7208,	2.054008e-08,	35.8698,	1.267548e-10,	35.4228,	1.735994e-09
677.145,	1.12265,	-0.0003665804,	0,	70.6801,	8.946454e-10,	70.5311,	8.40973e-08,	70.4561,	3.266773e-09,	70.3821,	8.354106e-12,	70.6051,	2.059054e-08,	70.7541,	1.216513e-10,	70.3071,	1.712331e-09
687.241,	1.324466,	0.003395655,	0,	105.565,	8.938146e-10,	105.416,	8.395911e-08,	105.342,	3.02285e-09,	105.267,	8.18654e-12,	105.491,	2.048998e-08,	105.64,	1.195911e-10,	105.193,	1.697385e-09
697.346,	1.526587,	0.01099456,	0,	140.451,	8.977818e-10,	140.302,	8.491587e-08,	140.227,	2.879806e-09,	140.153,	7.91183e-12,	140.376,	2.061786e-08,	140.524,	1.188447e-10,	140.078,	1.684769e-09
707.377,	1.67415,	0.02199345,	0,	175.334,	8.918813e-10,	175.185,	8.380993e-08,	175.111,	2.680083e-09,	175.036,	9.06986e-12,	175.26,	2.038789e-08,	175.409,	1.158551e-10,	174.962,	1.666833e-09
717.452,	1.472666,	-0.005437353,	0,	210.219,	8.894944e-10,	210.07,	8.349348e-08,	209.996,	2.541596e-09,	209.921,	9.123691e-12,	210.145,	2.035524e-08,	210.294,	1.146492e-10,	209.847,	1.642933e-09
727.602,	1.269593,	-0.005496901,	0,	245.106,	8.929144e-10,	244.957,	8.300231e-08,	244.882,	2.464638e-09,	244.808,	1.150005e-10,	245.031,	2.015381e-08,	245.18,	1.154678e-10,	244.733,	1.632587e-09
737.688,	1.06806,	-0.0007246341,	0,	279.99,	8.919309e-10,	279.841,	8.202009e-08,	279.767,	2.367514e-09,	279.692,	2.623987e-10,	279.916,	2.008075e-08,	280.065,	1.183311e-10,	279.618,	1.630692e-09
747.936,	0.8629854,	-0.002977166,	0,	314.875,	8.989868e-10,	314.726,	8.176902e-08,	314.651,	2.287639e-09,	314.577,	3.553882e-10,	314.8,	1.9975e-08,	314.949,	1.170418e-10,	314.502,	1.620082e-09
757.801,	0.665624,	-0.008339192,	0,	349.76,	8.95514e-10,	349.611,	8.174354e-08,	349.537,	2.200722e-09,	349.462,	3.949994e-10,	349.686,	2.023948e-08,	349.835,	1.178868e-10,	349.388,	1.60705e-09
767.924,	0.4632883,	-0.002654612,	0,	384.645,	8.811272e-10,	384.496,	8.153256e-08,	384.422,	2.146088e-09,	384.347,	1.879437e-10,	384.571,	2.00815e-08,	384.72,	1.137761e-10,	384.273,	1.589595e-09
778.152,	0.2589127,	-0.005192289,	0,	419.53,	8.686071e-10,	419.381,	8.036112e-08,	419.306,	2.081344e-09,	419.231,	5.152745e-10,	419.454,	1.981591e-08,	419.603,	1.160382e-10,	419.157,	1.591371e-09
788.126,	0.05927807,	-0.02484096,	0,	454.415,	8.589521e-10,	454.266,	7.994646e-08,	454.193,	2.064575e-09,	454.118,	3.270829e-10,	454.342,	1.997348e-08,	454.49,	1.161066e-10,	454.043,	1.576223e-09
798.2,	0.2439291,	0.001075941,	0,	489.3,	2.453026e-10,	489.151,	2.476462e-09,	489.076,	3.768817e-09,	489.002,	4.085265e-08,	489.225,	1.087539e-09,	489.374,	8.822194e-11,	488.927,	1.963301e-09
808.288,	0.4456153,	0.0001911129,	0,	524.185,	1.671882e-10,	524.036,	9.601363e-10,	523.962,	3.914372e-09,	523.887,	4.202474e-08,	524.111,	4.519759e-10,	524.26,	6.267734e-11,	523.813,	1.911646e-09
818.467,	0.6492383,	0.001034333,	0,	559.07,	1.251302e-10,	558.921,	7.531658e-10,	558.847,	3.954648e-09,	558.772,	4.195419e-08,	558.996,	3.820179e-10,	559.145,	5.135398e-11,	558.698,	1.90135e-09
828.283,	0.8456255,	0.00103815,	0,	593.956,	9.5749e-11,	593.807,	6.443213e-10,	593.732,	4.00775e-09,	593.658,	4.247783e-08,	593.881,	3.447685e-10,	594.03,	4.770777e-11,	593.583,	1.930687e-09
838.343,	1.046758,	0.00320365,	1,	628.841,	7.248654e-11,	628.692,	5.576063e-10,	628.618,	4.008985e-09,	628.543,	4.192225e-08,	628.767,	3.217135e-10,	628.916,	4.652348e-11,	628.469,	1.975683e-09
848.432,	1.248646,	0.006571187,	1,	663.726,	5.579755e-11,	663.577,	5.032871e-10,	663.502,	4.000589e-09,	663.428,	4.167851e-08,	663.651,	2.991015e-10,	663.8,	4.577524e-11,	663.353,	2.009826e-09
858.545,	1.450707,	0.0100498,	1,	698.611,	4.269646e-11,	698.461,	4.688853e-10,	698.388,	4.0139e-09,	698.3125,	4.184948e-08,	698.536,	3.001386e-10,	698.685,	5.472832e-11,	698.239,	2.039704e-09
868.7,	1.65399,	0.02981872,	1,	733.496,	3.241426e-11,	733.347,	4.264561e-10,	733.273,	4.018651e-09,	733.198,	4.228967e-08,	733.422,	3.083494e-10,	733.571,	6.079911e-11,	733.124,	2.056356e-09
878.629,	1.549082,	0.00223408,	1,	768.381,	2.60633e-11,	768.232,	3.90932e-10,	768.157,	4.012656e-09,	768.083,	4.206414e-08,	768.306,	2.535124e-10,	768.455,	5.237024e-11,	768.008,	2.076061e-09
889.023,	1.340901,	0.003419322,	1,	803.265,	2.08797e-11,	803.116,	3.617818e-10,	803.042,	3.992755e-09,	802.967,	4.266768e-08,	803.191,	2.424505e-10,	803.34,	4.744487e-11,	802.893,	2.077769e-09
899.295,	1.135555,	-0.001397607,	1,	838.151,	1.670457e-11,	838.002,	3.358368e-10,	837.927,	3.966467e-09,	837.853,	4.222057e-08,	838.076,	2.389187e-10,	838.225,	5.019184e-11,	837.778,	2.08689e-09
909.463,	0.932272,	-0.002012559,	1,	873.036,	1.31081e-11,	872.887,	3.341396e-10,	872.813,	3.95206e-09,	872.738,	4.262107e-08,	872.962,	5.709726e-10,	873.111,	9.899171e-11,	872.664,	2.099356e-09
919.613,	0.729245,	-0.01654007,	1,	907.92,	1.144253e-11,	907.771,	3.170307e-10,	907.697,	3.909942e-09,	907.622,	4.218055e-08,	907.846,	2.407048e-10,	907.995,	6.911889e-11,	907.548,	2.111117e-09
929.709,	0.5274366,	-0.002204945,	1,	942.806,	1.033959e-11,	942.657,	3.062655e-10,	942.582,	3.950535e-09,	942.508,	4.258439e-08,	942.731,	2.264987e-10,	942.88,	5.80956e-11,	942.433,	2.120151e-09
939.844,	0.3248221,	-0.002986327,	1,	977.691,	8.98688e-12,	977.542,	2.945328e-10,	977.468,	3.932909e-09,	977.393,	4.30834e-08,	977.617,	2.214473e-10,	977.766,	4.839158e-11,	977.319,	2.14324e-09
949.783,	0.125944,	-0.005856864,	1,	1012.58,	7.389897e-12,	1012.43,	2.91035e-10,	1012.35,	3.896915e-09,	1012.28,	4.266638e-08,	1012.5,	2.20004e-10,	1012.65,	5.605435e-11,	1012.2,	2.135941e-09
959.984,	0.0899253,	0.01699177,	1,	1047.46,	6.687025e-12,	1047.31,	2.970695e-10,	1047.24,	3.872304e-09,	1047.16,	4.231496e-08,	1047.39,	7.512335e-10,	1047.54,	1.058118e-10,	1047.09,	2.076633e-09
970.088,	0.2920584,	0.006522709,	1,	1082.35,	6.409259e-12,	1082.2,	2.81698e-10,	1082.12,	3.941178e-09,	1082.05,	4.279124e-08,	1082.27,	2.303797e-10,	1082.42,	6.956598e-11,	1081.97,	2.135663e-09
980.218,	0.4944628,	0.0009140913,	1,	1117.23,	6.07493e-12,	1117.08,	2.717032e-10,	1117.01,	3.882881e-09,	1116.93,	4.246799e-08,	1117.16,	2.129329e-10,	1117.31,	5.571695e-11,	1116.86,	2.146814e-09
989.969,	0.6897191,	-0.002810354,	1,	1152.12,	5.601295e-12,	1151.97,	2.715051e-10,	1151.89,	3.874788e-09,	1151.82,	4.266074e-08,	1152.04,	2.113841e-10,	1152.19,	4.738584e-11,	1151.74,	2.155841e-09
1000.09,	0.8918293,	0.001243516,	1,	1187,	5.34178e-12,	1186.85,	2.671042e-10,	1186.78,	3.864525e-09,	1186.7,	4.253698e-08,	1186.93,	2.090518e-10,	1187.08,	6.281638e-11,	1186.63,	2.147595e-09
1010.06,	1.091514,	0.003031876,	2,	1221.89,	5.089477e-12,	1221.74,	2.718605e-10,	1221.66,	3.837458e-09,	1221.59,	4.192952e-08,	1221.81,	4.837201e-10,	1221.96,	9.892602e-11,	1221.51,	2.119641e-09
1019.91,	1.288516,	0.006344826,	2,	1256.77,	5.050762e-12,	1256.62,	2.603624e-10,	1256.55,	3.825329e-09,	1256.47,	4.257572e-08,	1256.7,	2.163416e-10,	1256.85,	6.386362e-11,	1256.4,	2.155631e-09
1029.94,	1.488842,	0.01163623,	2,	1291.66,	5.056874e-12,	1291.51,	2.552598e-10,	1291.43,	3.827033e-09,	1291.36,	4.194773e-08,	1291.58,	2.047058e-10,	1291.73,	5.303336e-11,	1291.28,	2.150094e-09
1039.95,	1.689432,	0.04971398,	2,	1326.54,	4.828054e-12,	1326.39,	2.511973e-10,	1326.32,	3.819958e-09,	1326.24,	4.248109e-08,	1326.47,	2.023007e-10,	1326.62,	4.531862e-11,	1326.17,	2.154316e-09
1050.13,	1.508635,	-0.0009399244,	2,	1361.43,	4.569278e-12,	1361.28,	2.534874e-10,	1361.2,	3.82529e-09,	1361.13,	4.197683e-08,	1361.35,	2.055581e-10,	1361.5,	6.899351e-11,	1361.05,	2.161757e-09
1060.18,	1.30771,	0.0002086721,	2,	1396.31,	4.374411e-12,	1396.16,	2.569758e-10,	1396.09,	3.818195e-09,	1396.01,	4.1915e-08,	1396.24,	3.355773e-10,	1396.39,	8.665739e-11,	1395.94,	2.13829e-09
1070.48,	1.101714,	-0.0008360965,	2,	1431.2,	4.707523e-12,	1431.05,	2.465433e-10,	1430.97,	3.820957e-09,	1430.9,	4.172583e-08,	1431.12,	2.072766e-10,	1431.27,	6.318075e-11,	1430.82,	2.155576e-09
1080.625,	0.8986487,	-0.002005306,	2,	1466.08,	4.477953e-12,	1465.93,	2.506547e-10,	1465.86,	3.820287e-09,	1465.78,	4.272276e-08,	1466.01,	2.02185e-10,	1466.16,	5.110313e-11,	1465.71,	8.283421e-09
1090.68,	0.6974211,	-0.01568769,	2,	1500.97,	4.731385e-12,	1500.82,	2.44094e-10,	1500.74,	3.79189e-09,	1500.67,	4.211867e-08,	1500.89,	2.032316e-10,	1501.04,	4.712753e-11,	1500.6,	2.176131e-09
1100.98,	0.4914141,	0.0007717095,	2,	1535.85,	4.367008e-12,	1535.7,	2.431541e-10,	1535.63,	3.838416e-09,	1535.55,	4.234786e-08,	1535.78,	2.028945e-10,	1535.93,	7.475254e-11,	1535.48,	2.166439e-09
1111.14,	0.2885436,	-0.00141822,	2,	1570.74,	4.231433e-12,	1570.59,	2.477824e-10,	1570.51,	3.830835e-09,	1570.44,	4.18713e-08,	1570.66,	2.676563e-10,	1570.81,	7.694863e-11,	1570.37,	2.152062e-09
1121.25,	0.08625765,	-0.01885177,	2,	1605.62,	4.308702e-12,	1605.47,	2.378742e-10,	1605.4,	3.767258e-09,	1605.32,	4.241955e-08,	1605.55,	2.010564e-10,	1605.7,	5.984845e-11,	1605.25,	2.169124e-09
1131.29,	0.1362972,	0.004988193,	2,	1640.51,	4.453177e-12,	1640.36,	2.421832e-10,	1640.28,	3.756031e-09,	1640.21,	4.22516e-08,	1640.43,	1.976595e-10,	1640.58,	4.823469e-11,	1640.13,	2.339984e-09
1141.48,	0.3403405,	0.003917848,	2,	1675.39,	4.467443e-12,	1675.24,	2.352768e-10,	1675.17,	3.778502e-09,	1675.09,	4.203889e-08,	1675.32,	1.97887e-10,	1675.47,	5.109767e-11,	1675.02,	2.177832e-09
1151.31,	0.5367469,	0.0001437796,	2,	1710.28,	4.383185e-12,	1710.13,	2.34215e-10,	1710.05,	3.75135e-09,	1709.98,	4.188953e-08,	1710.2,	1.959732e-10,	1710.35,	4.727071e-11,	1709.9,	2.170009e-09
1161.34,	0.7373671,	-0.002351526,	2,	1745.16,	4.322991e-12,	1745.01,	2.320938e-10,	1744.94,	3.789104e-09,	1744.86,	4.194409e-08,	1745.09,	1.971975e-10,	1745.24,	4.438487e-11,	1744.79,	2.185437e-09
1171.74,	0.9453186,	0.00900618,	3,	1780.05,	4.212847e-12,	1779.9,	2.297741e-10,	1779.82,	3.746226e-09,	1779.75,	4.185164e-08,	1779.97,	1.913231e-10,	1780.12,	4.191558e-11,	1779.67,	2.162238e-09
1182.07,	1.152067,	0.003380768,	3,	1814.93,	4.047848e-12,	1814.78,	2.314004e-10,	1814.71,	3.757404e-09,	1814.63,	4.184257e-08,	1814.86,	1.948695e-10,	1815.01,	4.172826e-11,	1814.56,	2.184393e-09
1192.29,	1.356469,	0.01206223,	3,	1849.82,	4.23915e-12,	1849.67,	2.304976e-10,	1849.59,	3.763228e-09,	1849.52,	4.218982e-08,	1849.74,	1.953206e-10,	1849.89,	4.129173e-11,	1849.44,	2.18938e-09
1202.44,	1.559301,	0.01584394,	3,	1884.7,	4.1988e-12,	1884.55,	2.275185e-10,	1884.48,	3.778263e-09,	1884.4,	4.162395e-08,	1884.63,	1.943534e-10,	1884.78,	4.048619e-11,	1884.33,	2.202813e-09
1212.5,	1.64081,	0.01070255,	3,	1919.59,	4.132526e-12,	1919.44,	2.271671e-10,	1919.37,	3.723069e-09,	1919.29,	4.160937e-08,	1919.51,	1.931338e-10,	1919.66,	4.053182e-11,	1919.22,	2.187095e-09
1222.63,	1.438382,	0.0007007096,	3,	1954.47,	4.083419e-12,	1954.32,	2.268749e-10,	1954.25,	3.735939e-09,	1954.17,	4.213508e-08,	1954.4,	1.936268e-10,	1954.55,	4.06128e-11,	1954.1,	2.18639e-09
1232.82,	1.234545,	0.0008415644,	3,	1989.36,	4.298725e-12,	1989.21,	2.239143e-10,	1989.13,	3.739647e-09,	1989.06,	4.164215e-08,	1989.28,	1.946363e-10,	1989.43,	4.283628e-11,	1988.98,	2.195297e-09
1242.87,	1.033325,	-0.004188746,	3,	2024.24,	3.89956e-12,	2024.09,	2.254121e-10,	2024.02,	3.720635e-09,	2023.94,	4.14566e-08,	2024.17,	1.962066e-10,	2024.32,	5.157242e-11,	2023.87,	2.179463e-09
1252.9,	0.8326744,	-0.005590423,	3,	2059.13,	4.021619e-12,	2058.98,	2.286596e-10,	2058.9,	3.693331e-09,	2058.83,	4.118741e-08,	2059.05,	1.967328e-10,	2059.2,	5.693828e-11,	2058.76,	2.182005e-09
1263.02,	0.6307017,	-0.00553202,	3,	2094.01,	4.138724e-12,	2093.86,	2.247377e-10,	2093.79,	3.710599e-09,	2093.71,	4.155481e-08,	2093.94,	2.062391e-10,	2094.09,	5.712533e-11,	2093.64,	2.193128e-09
1273.06,	0.4297186,	-0.001214,	3,	2128.9,	4.225254e-12,	2128.75,	2.283041e-10,	2128.67,	3.684457e-09,	2128.6,	4.127108e-08,	2128.82,	2.372602e-10,	2128.97,	5.522014e-11,	2128.53,	2.19371e-09
1283.14,	0.2280363,	-0.00777997,	3,	2163.78,	4.02297e-12,	2163.63,	2.190196e-10,	2163.56,	3.70272e-09,	2163.49,	4.144206e-08,	2163.71,	2.545028e-10,	2163.86,	5.020445e-11,	2163.41,	2.189436e-09
1293.31,	0.02483724,	-0.07938994,	3,	2198.67,	4.010504e-12,	2198.52,	2.133775e-10,	2198.44,	3.682373e-09,	2198.37,	4.115824e-08,	2198.59,	2.614545e-10,	2198.74,	4.596894e-11,	2198.3,	2.178302e-09
1303.45,	0.1999678,	0.01182328,	3,	2233.55,	3.617548e-12,	2233.4,	2.092648e-10,	2233.33,	3.69603e-09,	2233.26,	4.147113e-08,	2233.48,	2.712606e-10,	2233.63,	4.485006e-11,	2233.18,	2.172472e-09
1313.66,	0.4039615,	0.0005304623,	3,	2268.44,	3.86083e-12,	2268.29,	2.100091e-10,	2268.21,	3.700636e-09,	2268.14,	4.166843e-08,	2268.36,	2.698017e-10,	2268.51,	4.237907e-11,	2268.07,	2.183486e-09
1323.84,	0.6078367,	0.001032043,	3,	2303.32,	3.771095e-12,	2303.17,	2.089132e-10,	2303.1,	3.661478e-09,	2303.03,	4.15772e-08,	2303.25,	1.933709e-10,	2303.4,	4.03112e-11,	2302.95,	2.186836e-09
1334.1,	0.8128733,	0.003120053,	3,	2338.21,	3.903198e-12,	2338.06,	2.048755e-10,	2337.98,	3.683361e-09,	2337.91,	4.099092e-08,	2338.13,	1.905163e-10,	2338.28,	4.022037e-11,	2337.84,	2.190075e-09
1344.07,	1.012336,	0.003740349,	4,	2373.09,	3.841097e-12,	2372.94,	2.077019e-10,	2372.87,	3.662607e-09,	2372.8,	4.167211e-08,	2373.02,	1.894622e-10,	2373.17,	3.964378e-11,	2372.72,	2.197126e-09
1354.21,	1.214996,	0.006404374,	4,	2407.98,	3.828667e-12,	2407.83,	2.042171e-10,	2407.75,	3.706714e-09,	2407.68,	4.163516e-08,	2407.9,	1.887587e-10,	2408.05,	3.885841e-11,	2407.61,	2.19674e-09
1364.29,	1.416854,	0.0101189,	4,	2442.86,	3.684928e-12,	2442.71,	2.05908e-10,	2442.64,	3.682998e-09,	2442.57,	4.159813e-08,	2442.79,	1.896507e-10,	2442.94,	3.806068e-11,	2442.49,	2.211804e-09
1374.46,	1.620114,	0.02602862,	4,	2477.75,	3.669157e-12,	2477.6,	2.0519e-10,	2477.53,	3.671403e-09,	2477.45,	4.111465e-08,	2477.67,	1.889991e-10,	2477.82,	3.86375e-11,	2477.38,	2.200148e-09
1384.72,	1.575981,	0.00486795,	4,	2512.63,	3.899076e-12,	2512.48,	2.061213e-10,	2512.41,	3.678488e-09,	2512.34,	4.172017e-08,	2512.56,	1.879534e-10,	2512.71,	3.844077e-11,	2512.26,	2.199301e-09
1394.89,	1.37271,	0.0008381289,	4,	2547.52,	3.600295e-12,	2547.37,	2.031271e-10,	2547.3,	3.656881e-09,	2547.22,	4.123103e-08,	2547.44,	1.886649e-10,	2547.59,	3.795266e-11,	2547.15,	2.198151e-09
1405.08,	1.169159,	-0.0004574299,	4,	2582.4,	3.939083e-12,	2582.26,	2.039959e-10,	2582.18,	3.657135e-09,	2582.11,	4.149991e-08,	2582.33,	1.917923e-10,	2582.48,	3.842312e-11,	2582.03,	2.2071e-09
1415.22,	0.9661589,	-0.002562617,	4,	2617.29,	3.641285e-12,	2617.14,	2.090635e-10,	2617.07,	3.653795e-09,	2616.99,	4.139708e-08,	2617.21,	3.606202e-10,	2617.36,	4.130368e-11,	2616.92,	2.179035e-09
1425.45,	0.7616686,	-0.01721686,	4,	2652.17,	3.658325e-12,	2652.03,	2.062826e-10,	2651.95,	3.661971e-09,	2651.88,	4.137648e-08,	2652.1,	3.655634e-10,	2652.25,	4.115381e-11,	2651.8,	2.203141e-09
1435.57,	0.5592719,	-0.002307628,	4,	2687.06,	3.868959e-12,	2686.91,	2.037755e-10,	2686.84,	3.631563e-09,	2686.76,	4.088911e-08,	2686.98,	3.70708e-10,	2687.13,	4.03308e-11,	2686.69,	2.19063e-09
1445.67,	0.3571693,	-0.001769021,	4,	2721.94,	3.685959e-12,	2721.8,	2.049536e-10,	2721.72,	3.632138e-09,	2721.65,	4.116273e-08,	2721.87,	3.733347e-10,	2722.02,	4.030469e-11,	2721.57,	2.183859e-09
1455.89,	0.1528128,	-0.01132653,	4,	2756.83,	3.851998e-12,	2756.68,	2.055636e-10,	2756.61,	3.633844e-09,	2756.53,	4.107441e-08,	2756.75,	3.697086e-10,	2756.9,	3.989238e-11,	2756.46,	2.179519e-09
1466,	0.07140782,	0.01174693,	4,	2791.71,	4.093636e-12,	2791.57,	2.076117e-10,	2791.49,	3.650879e-09,	2791.42,	4.138322e-08,	2791.64,	3.73548e-10,	2791.79,	3.995846e-11,	2791.34,	2.20146e-09
1476.16,	0.2744617,	0.005225241,	4,	2826.6,	3.788498e-12,	2826.45,	2.047604e-10,	2826.375,	3.644282e-09,	2826.3,	4.099089e-08,	2826.52,	3.742422e-10,	2826.67,	3.878934e-11,	2826.23,	2.183369e-09
1486.35,	0.4782681,	0.001397731,	4,	2861.48,	3.658499e-12,	2861.34,	2.06585e-10,	2861.26,	3.643884e-09,	2861.19,	4.170608e-08,	2861.41,	3.76947e-10,	2861.56,	3.993032e-11,	2861.11,	2.197016e-09
1496.45,	0.6803707,	0.003427338,	4,	2896.37,	3.729508e-12,	2896.22,	2.050546e-10,	2896.15,	3.603569e-09,	2896.07,	4.101278e-08,	2896.3,	2.093252e-10,	2896.44,	3.830699e-11,	2896,	2.197769e-09
1506.7,	0.8853804,	0.004484703,	4,	2931.26,	3.533339e-12,	2931.11,	2.064495e-10,	2931.03,	3.632554e-09,	2930.96,	4.119462e-08,	2931.18,	1.918229e-10,	2931.33,	3.771756e-11,	2930.88,	2.202591e-09
1516.92,	1.089806,	0.003207849,	5,	2966.14,	3.568035e-12,	2965.99,	2.046257e-10,	2965.92,	3.600504e-09,	2965.84,	4.098365e-08,	2966.07,	1.911392e-10,	2966.21,	3.760991e-11,	2965.77,	2.211009e-09
1526.79,	1.286976,	0.008138912,	5,	3001.02,	3.678047e-12,	3000.875,	2.049751e-10,	3000.8,	3.599007e-09,	3000.73,	4.147718e-08,	3000.95,	1.913487e-10,	3001.1,	3.802944e-11,	3000.65,	2.201096e-09
1536.97,	1.490611,	0.01158356,	5,	3035.91,	3.887091e-12,	3035.76,	2.019084e-10,	3035.69,	3.659869e-09,	3035.61,	4.11874e-08,	3035.84,	1.902715e-10,	3035.98,	3.808834e-11,	3035.54,	2.215549e-09
1547.07,	1.692694,	0.08031841,	5,	3070.79,	3.87048e-12,	3070.64,	2.013977e-10,	3070.57,	3.637055e-09,	3070.5,	4.11146e-08,	3070.72,	1.906107e-10,	3070.87,	3.722568e-11,	3070.42,	2.212516e-09
1557.29,	1.50436,	0.003392601,	5,	3105.68,	3.860657e-12,	3105.53,	2.040752e-10,	3105.45,	3.627697e-09,	3105.38,	4.094364e-08,	3105.6,	1.879058e-10,	3105.75,	3.780098e-11,	3105.31,	2.218987e-09
1567.37,	1.302881,	0.0002815807,	5,	3140.57,	3.658321e-12,	3140.42,	2.024572e-10,	3140.34,	3.596537e-09,	3140.27,	4.135706e-08,	3140.49,	1.895124e-10,	3140.64,	3.674286e-11,	3140.19,	2.218588e-09
1577.46,	1.101084,	-0.0008536556,	5,	3175.45,	3.660508e-12,	3175.3,	2.048573e-10,	3175.23,	3.603518e-09,	3175.15,	4.110733e-08,	3175.375,	1.888594e-10,	3175.52,	3.771478e-11,	3175.08,	2.207518e-09
1587.64,	0.8974453,	-0.00395437,	5,	3210.33,	3.712477e-12,	3210.18,	2.048622e-10,	3210.11,	3.6124e-09,	3210.04,	4.055435e-08,	3210.26,	5.533643e-10,	3210.41,	4.083684e-11,	3209.96,	2.178205e-09
1597.94,	0.6914766,	-0.01979462,	5,	3245.22,	3.738166e-12,	3245.07,	2.065329e-10,	3245,	3.61179e-09,	3244.92,	4.072169e-08,	3245.15,	5.62101e-10,	3245.29,	4.039603e-11,	3244.85,	2.166624e-09
1608.08,	0.488522,	-0.00075479,	5,	3280.11,	3.635627e-12,	3279.96,	2.0827e-10,	3279.88,	3.570995e-09,	3279.81,	4.081465e-08,	3280.03,	5.597314e-10,	3280.18,	4.044437e-11,	3279.73,	2.16878e-09
1618.05,	0.2892122,	-0.007974648,	5,	3314.99,	3.866729e-12,	3314.84,	2.057163e-10,	3314.77,	3.605443e-09,	3314.69,	4.050588e-08,	3314.91,	5.691553e-10,	3315.06,	3.990923e-11,	3314.62,	2.16965e-09
1627.99,	0.09037614,	-0.0121667,	5,	3349.875,	3.687811e-12,	3349.73,	2.02952e-10,	3349.65,	3.616457e-09,	3349.58,	4.072293e-08,	3349.8,	5.737422e-10,	3349.95,	3.994519e-11,	3349.5,	2.165877e-09
1637.89,	0.1294014,	0.006049756,	5,	3384.76,	3.520085e-12,	3384.61,	2.046719e-10,	3384.54,	3.582997e-09,	3384.46,	4.044164e-08,	3384.68,	5.762253e-10,	3384.83,	3.917418e-11,	3384.39,	2.166197e-09
1647.93,	0.3303502,	-0.0002054944,	5,	3419.64,	3.685417e-12,	3419.5,	2.039085e-10,	3419.42,	3.595399e-09,	3419.35,	4.040871e-08,	3419.57,	5.667865e-10,	3419.72,	4.001317e-11,	3419.27,	2.156997e-09
1658.16,	0.5349742,	0.0001743173,	5,	3454.53,	3.849813e-12,	3454.38,	2.049479e-10,	3454.31,	3.59152e-09,	3454.23,	4.056129e-08,	3454.45,	5.721189e-10,	3454.6,	3.950332e-11,	3454.16,	2.150527e-09
1668.4,	0.7397892,	-0.00165336,	5,	3489.41,	3.701569e-12,	3489.27,	2.022864e-10,	3489.19,	3.590732e-09,	3489.12,	4.066029e-08,	3489.34,	2.846257e-10,	3489.49,	3.831063e-11,	3489.04,	2.183135e-09
1678.57,	0.895324,	1.169624e-06,	6,	3524.3,	3.798983e-12,	3524.15,	1.995176e-10,	3524.08,	3.554953e-09,	3524,	4.111038e-08,	3524.22,	1.978817e-10,	3524.37,	3.807715e-11,	3523.93,	2.205617e-09
1688.7,	0.8473819,	1.398497e-06,	6,	3559.18,	3.619804e-12,	3559.04,	1.990878e-10,	3558.96,	3.588694e-09,	3558.89,	4.05289e-08,	3559.11,	1.941545e-10,	3559.26,	3.837499e-11,	3558.81,	2.205851e-09
1698.88,	0.8317679,	1.284061e-06,	6,	3594.07,	3.88218e-12,	3593.92,	1.98655e-10,	3593.85,	3.55725e-09,	3593.77,	4.099102e-08,	3593.99,	1.933721e-10,	3594.14,	3.721102e-11,	3593.7,	2.20797e-09
1709.03,	0.8246123,	1.818097e-06,	6,	3628.96,	3.866577e-12,	3628.81,	1.994261e-10,	3628.73,	3.583508e-09,	3628.66,	4.07649e-08,	3628.88,	1.918782e-10,	3629.03,	3.701037e-11,	3628.58,	2.200564e-09
1719.04,	0.8223813,	1.818097e-06,	6,	3663.84,	3.55873e-12,	3663.69,	2.017317e-10,	3663.62,	3.584148e-09,	3663.54,	4.108738e-08,	3663.77,	1.886765e-10,	3663.91,	3.732252e-11,	3663.47,	2.216516e-09
1729.11,	0.8229123,	1.436642e-06,	6,	3698.72,	3.66265e-12,	3698.58,	1.964912e-10,	3698.5,	3.561068e-09,	3698.43,	4.065159e-08,	3698.65,	1.906077e-10,	3698.8,	3.628197e-11,	3698.35,	2.215495e-09
1739.3,	0.8251969,	2.123261e-06,	6,	3733.61,	3.592391e-12,	3733.46,	1.991901e-10,	3733.38,	3.555034e-09,	3733.31,	4.071083e-08,	3733.53,	1.87991e-10,	3733.68,	3.740272e-11,	3733.24,	2.2149e-09
1749.45,	0.8285359,	1.436642e-06,	6,	3768.49,	3.40381e-12,	3768.35,	1.970352e-10,	3768.27,	3.544926e-09,	3768.2,	4.086665e-08,	3768.42,	1.874251e-10,	3768.57,	3.672247e-11,	3768.12,	2.210671e-09
1759.61,	0.8324021,	2.04697e-06,	6,	3803.38,	3.908993e-12,	3803.23,	2.018259e-10,	3803.16,	3.557672e-09,	3803.08,	4.017903e-08,	3803.31,	7.229035e-10,	3803.45,	3.951683e-11,	3803.01,	2.173203e-09
1769.65,	0.8363104,	2.352133e-06,	6,	3838.27,	3.916859e-12,	3838.12,	2.023672e-10,	3838.04,	3.569085e-09,	3837.97,	4.032881e-08,	3838.19,	7.476222e-10,	3838.34,	4.054524e-11,	3837.89,	2.149737e-09
1779.72,	0.8401537,	2.046969e-06,	6,	3873.15,	3.629936e-12,	3873,	2.010069e-10,	3872.93,	3.551848e-09,	3872.85,	4.029574e-08,	3873.08,	7.610469e-10,	3873.22,	4.013618e-11,	3872.78,	2.131697e-09
1789.77,	0.8438595,	1.703661e-06,	6,	3908.04,	3.491686e-12,	3907.89,	1.99172e-10,	3907.81,	3.586032e-09,	3907.74,	4.012322e-08,	3907.96,	7.604636e-10,	3908.11,	3.994594e-11,	3907.66,	2.145165e-09
1800,	0.8475003,	1.62737e-06,	6,	3942.92,	3.706204e-12,	3942.77,	1.993201e-10,	3942.7,	3.615166e-09,	3942.62,	3.988499e-08,	3942.85,	7.603234e-10,	3942.99,	3.951546e-11,	3942.55,	2.133596e-09
1810.26,	0.8508546,	1.589224e-06,	6,	3977.81,	3.594477e-12,	3977.66,	1.997731e-10,	3977.58,	3.561432e-09,	3977.51,	3.977854e-08,	3977.73,	7.682555e-10,	3977.88,	4.021199e-11,	3977.43,	2.134894e-09
1820.46,	0.8540791,	1.589224e-06,	6,	4012.69,	3.470375e-12,	4012.54,	2.021332e-10,	4012.47,	3.527183e-09,	4012.39,	3.973033e-08,	4012.62,	7.611219e-10,	4012.77,	3.971218e-11,	4012.32,	2.133643e-09
1830.48,	0.8569825,	1.779952e-06,	6,	4047.58,	3.699645e-12,	4047.43,	1.972289e-10,	4047.35,	3.528479e-09,	4047.28,	3.969581e-08,	4047.5,	7.610048e-10,	4047.65,	4.012171e-11,	4047.2,	2.128273e-09
1840.65,	0.8596606,	1.894388e-06,	6,	4082.46,	3.749996e-12,	4082.31,	2.017953e-10,	4082.24,	3.566129e-09,	4082.16,	3.991133e-08,	4082.39,	6.099643e-10,	4082.54,	3.957846e-11,	4082.09,	2.147564e-09
1850.64,	0.8623005,	1.932533e-06,	6,	4117.35,	3.638531e-12,	4117.2,	1.984882e-10,	4117.12,	3.551089e-09,	4117.05,	4.071241e-08,	4117.27,	2.064061e-10,	4117.42,	3.744875e-11,	4116.97,	2.200016e-09
1860.64,	0.864692,	1.932533e-06,	6,	4152.23,	3.647372e-12,	4152.08,	1.994858e-10,	4152.01,	3.558564e-09,	4151.93,	4.045981e-08,	4152.16,	1.984532e-10,	4152.31,	3.751086e-11,	4151.86,	2.197293e-09
1870.79,	0.8670951,	2.390279e-06,	6,	4187.12,	3.68301e-12,	4186.97,	1.965594e-10,	4186.89,	3.54595e-09,	4186.82,	4.069807e-08,	4187.04,	1.938046e-10,	4187.19,	3.721439e-11,	4186.74,	2.1961e-09
1880.89,	0.8693224,	1.589224e-06,	6,	4222.0,	3.711864e-12,	4221.85,	1.949436e-10,	4221.78,	3.524595e-09,	4221.7,	4.057923e-08,	4221.93,	1.891053e-10,	4222.08,	3.686785e-11,	4221.63,	2.199561e-09
1890.99,	0.8712593,	1.703661e-06,	6,	4256.89,	3.629202e-12,	4256.74,	1.967775e-10,	4256.66,	3.52326e-09,	4256.59,	4.027944e-08,	4256.81,	1.896655e-10,	4256.96,	3.67654e-11,	4256.51,	2.19214e-09
1901.03,	0.8731046,	2.390279e-06,	6,	4291.77,	3.56796e-12,	4291.62,	1.944909e-10,	4291.55,	3.537413e-09,	4291.47,	4.05581e-08,	4291.7,	1.886021e-10,	4291.85,	3.726081e-11,	4291.4,	2.208384e-09
1911.04,	0.8749002,	1.512933e-06,	6,	4326.66,	3.389293e-12,	4326.51,	1.928638e-10,	4326.43,	3.534298e-09,	4326.36,	4.072228e-08,	4326.58,	1.872996e-10,	4326.73,	3.69496e-11,	4326.28,	2.221201e-09
1921.19,	0.8765697,	2.123261e-06,	6,	4361.54,	3.777431e-12,	4361.39,	1.923003e-10,	4361.32,	3.570851e-09,	4361.24,	4.04999e-08,	4361.47,	1.873088e-10,	4361.62,	3.727501e-11,	4361.17,	2.209643e-09
1931.11,	0.8781628,	1.665515e-06,	6,	4396.43,	3.428239e-12,	4396.28,	1.980993e-10,	4396.2,	3.54775e-09,	4396.13,	3.972854e-08,	4396.35,	8.674764e-10,	4396.5,	3.917624e-11,	4396.05,	2.148212e-09
1941.24,	0.8797406,	1.894388e-06,	6,	4431.31,	3.817566e-12,	4431.16,	1.9282e-10,	4431.09,	3.49757e-09,	4431.01,	3.950699e-08,	4431.24,	9.287704e-10,	4431.38,	3.95184e-11,	4430.94,	2.114743e-09
1951.33,	0.8811083,	1.665515e-06,	6,	4466.2,	3.50319e-12,	4466.05,	1.935485e-10,	4465.97,	3.493209e-09,	4465.9,	3.915496e-08,	4466.12,	9.336166e-10,	4466.27,	3.946634e-11,	4465.82,	2.094137e-09
1961.33,	0.8824722,	1.779952e-06,	6,	4501.08,	3.318558e-12,	4500.93,	1.97169e-10,	4500.86,	3.491833e-09,	4500.78,	3.943289e-08,	4501.01,	9.447814e-10,	4501.15,	3.976784e-11,	4500.71,	2.096442e-09
1971.46,	0.8838246,	1.970679e-06,	6,	4535.97,	3.403111e-12,	4535.82,	1.950232e-10,	4535.74,	3.536824e-09,	4535.67,	3.908454e-08,	4535.89,	9.499798e-10,	4536.04,	4.008455e-11,	4535.59,	2.097868e-09
1981.56,	0.9986503,	0.002501719,	6,	4570.85,	3.495414e-12,	4570.7,	1.955061e-10,	4570.63,	3.476561e-09,	4570.55,	3.921936e-08,	4570.78,	9.537718e-10,	4570.93,	3.991093e-11,	4570.48,	2.092715e-09
1991.64,	1.09455,	0.002501032,	6,	4605.74,	3.731199e-12,	4605.59,	1.940477e-10,	4605.51,	3.477407e-09,	4605.44,	3.905553e-08,	4605.66,	9.493831e-10,	4605.81,	4.063178e-11,	4605.36,	2.093324e-09
2001.83,	1.160517,	0.002501833,	6,	4640.62,	3.709246e-12,	4640.47,	1.959619e-10,	4640.4,	3.51762e-09,	4640.32,	3.912825e-08,	4640.55,	9.534696e-10,	4640.7,	4.00253e-11,	4640.25,	2.085988e-09
2012.01,	1.214468,	0.002501795,	6,	4675.51,	3.390321e-12,	4675.36,	1.933385e-10,	4675.28,	3.492488e-09,	4675.21,	3.924054e-08,	4675.43,	9.537388e-10,	4675.58,	3.946589e-11,	4675.13,	2.08687e-09
2022.25,	1.260737,	0.00250191,	6,	4710.39,	3.462458e-12,	4710.24,	1.904062e-10,	4710.17,	3.496731e-09,	4710.09,	3.975209e-08,	4710.32,	2.148438e-10,	4710.47,	3.767257e-11,	4710.02,	2.174595e-09
2032.25,	1.29998,	0.002502024,	6,	4745.28,	3.469321e-12,	4745.13,	1.885602e-10,	4745.05,	3.493948e-09,	4744.98,	3.950662e-08,	4745.2,	1.964808e-10,	4745.35,	3.728496e-11,	4744.9,	2.174051e-09
2042.65,	1.336954,	0.002502138,	6,	4780.16,	3.26267e-12,	4780.01,	1.888395e-10,	4779.94,	3.502747e-09,	4779.86,	3.997192e-08,	4780.09,	1.912579e-10,	4780.24,	3.709028e-11,	4779.79,	2.17291e-09
2052.71,	1.371142,	0.002501833,	6,	4815.05,	3.556136e-12,	4814.9,	1.87687e-10,	4814.82,	3.527816e-09,	4814.75,	3.957574e-08,	4814.97,	1.890689e-10,	4815.12,	3.655422e-11,	4814.67,	2.182183e-09
2062.86,	1.405098,	0.002502367,	6,	4849.93,	3.535556e-12,	4849.78,	1.886021e-10,	4849.71,	3.475194e-09,	4849.63,	3.964805e-08,	4849.86,	1.883807e-10,	4850.01,	3.685201e-11,	4849.56,	2.187227e-09
2072.98,	1.437797,	0.002501833,	6,	4884.82,	3.475033e-12,	4884.67,	1.873725e-10,	4884.59,	3.498871e-09,	4884.52,	3.992134e-08,	4884.74,	1.87297e-10,	4884.89,	3.547655e-11,	4884.44,	2.199894e-09
2083.1,	1.467546,	0.002502596,	6,	4919.7,	3.466564e-12,	4919.55,	1.880956e-10,	4919.48,	3.532124e-09,	4919.4,	4.000942e-08,	4919.63,	1.875677e-10,	4919.78,	3.649371e-11,	4919.33,	2.204039e-09
2093.21,	1.49218,	0.002502215,	6,	4954.59,	3.362986e-12,	4954.44,	1.870891e-10,	4954.36,	3.517133e-09,	4954.29,	3.972859e-08,	4954.51,	1.83999e-10,	4954.66,	3.644509e-11,	4954.21,	2.200599e-09
2103.42,	1.511611,	0.00250149,	6,	4989.47,	3.206041e-12,	4989.32,	1.884596e-10,	4989.25,	3.513988e-09,	4989.17,	4.009527e-08,	4989.4,	1.847518e-10,	4989.55,	3.598766e-11,	4989.1,	2.197385e-09
2113.64,	1.526403,	0.002501604,	6,	5024.36,	3.558607e-12,	5024.21,	1.882498e-10,	5024.13,	3.469394e-09,	5024.06,	3.964491e-08,	5024.28,	1.841402e-10,	5024.43,	3.581978e-11,	5023.98,	2.20795e-09
2123.79,	1.53765,	0.002501452,	6,	5059.24,	3.423869e-12,	5059.09,	1.897288e-10,	5059.02,	3.508258e-09,	5058.94,	3.992948e-08,	5059.17,	1.857682e-10,	5059.32,	3.660715e-11,	5058.87,	2.21177e-09
2134.06,	1.546655,	0.002501795,	6,	5094.13,	3.503836e-12,	5093.98,	1.869836e-10,	5093.9,	3.48972e-09,	5093.83,	3.987745e-08,	5094.05,	1.824591e-10,	5094.2,	3.631353e-11,	5093.75,	2.203047e-09
2144.05,	1.553654,	0.0025021,	6,	5129.01,	3.451201e-12,	5128.86,	1.871565e-10,	5128.79,	3.436711e-09,	5128.71,	3.940479e-08,	5128.94,	1.80979e-10,	5129.09,	3.581765e-11,	5128.64,	2.197806e-09
2154.18,	1.55953,	0.002501833,	6,	5163.9,	3.440612e-12,	5163.75,	1.877719e-10,	5163.67,	3.4513e-09,	5163.6,	3.981926e-08,	5163.82,	1.81692e-10,	5163.97,	3.545942e-11,	5163.53,	2.190059e-09
2164.52,	1.564626,	0.002501719,	6,	5198.78,	3.633663e-12,	5198.63,	1.852357e-10,	5198.56,	3.470266e-09,	5198.48,	3.965281e-08,	5198.71,	1.808471e-10,	5198.86,	3.604944e-11,	5198.41,	2.204484e-09
2174.49,	1.568855,	0.002502062,	6,	5233.67,	3.45083e-12,	5233.52,	1.882795e-10,	5233.44,	3.488051e-09,	5233.37,	3.991779e-08,	5233.59,	1.810745e-10,	5233.74,	3.626868e-11,	5233.29,	2.209671e-09
2184.51,	1.572492,	0.002501833,	6,	5268.55,	3.171077e-12,	5268.4,	1.8455e-10,	5268.33,	3.488185e-09,	5268.25,	4.004108e-08,	5268.48,	1.796857e-10,	5268.63,	3.647875e-11,	5268.18,	2.211142e-09
2194.74,	1.575766,	0.002502253,	6,	5303.44,	3.217126e-12,	5303.29,	1.841649e-10,	5303.21,	3.489947e-09,	5303.14,	3.982935e-08,	5303.36,	1.820514e-10,	5303.51,	3.622213e-11,	5303.07,	2.210525e-09
2204.79,	1.578735,	0.002502215,	6,	5338.32,	3.241448e-12,	5338.17,	1.854771e-10,	5338.1,	3.482155e-09,	5338.02,	3.995384e-08,	5338.25,	1.801025e-10,	5338.4,	3.630831e-11,	5337.95,	2.219029e-09
2215.04,	1.581382,	0.002502138,	6,	5373.21,	3.142539e-12,	5373.06,	1.840963e-10,	5372.98,	3.480117e-09,	5372.91,	3.951025e-08,	5373.13,	1.809761e-10,	5373.28,	3.624539e-11,	5372.84,	2.209941e-09
2225.14,	1.583736,	0.002501681,	6,	5408.09,	3.213825e-12,	5407.94,	1.852047e-10,	5407.87,	3.488503e-09,	5407.79,	3.955758e-08,	5408.02,	1.803589e-10,	5408.17,	3.583178e-11,	5407.72,	2.207846e-09
2235.34,	1.585913,	0.002501795,	6,	5442.98,	3.276762e-12,	5442.83,	1.830306e-10,	5442.75,	3.473102e-09,	5442.68,	3.94683e-08,	5442.9,	1.762588e-10,	5443.05,	3.546891e-11,	5442.61,	2.211679e-09
2245.49,	1.587858,	0.002501795,	6,	5477.86,	3.14224e-12,	5477.71,	1.831291e-10,	5477.64,	3.478081e-09,	5477.57,	3.980882e-08,	5477.79,	1.787764e-10,	5477.94,	3.559324e-11,	5477.49,	2.197067e-09
2255.6,	1.589661,	0.002501795,	6,	5512.75,	3.462235e-12,	5512.6,	1.829809e-10,	5512.52,	3.453155e-09,	5512.45,	3.936374e-08,	5512.67,	1.786351e-10,	5512.82,	3.572343e-11,	5512.375,	2.20655e-09
2265.81,	1.591346,	0.002501795,	6,	5547.63,	3.345644e-12,	5547.48,	1.836538e-10,	5547.41,	3.411823e-09,	5547.34,	3.953502e-08,	5547.56,	1.781807e-10,	5547.71,	3.517895e-11,	5547.26,	2.210735e-09
2275.84,	1.592901,	0.00250191,	6,	5582.52,	3.410178e-12,	5582.37,	1.834834e-10,	5582.3,	3.453363e-09,	5582.22,	3.974671e-08,	5582.44,	1.764773e-10,	5582.59,	3.470165e-11,	5582.15,	2.210709e-09
2285.94,	1.451979,	2.085115e-06,	6,	5617.4,	3.218298e-12,	5617.25,	1.820901e-10,	5617.18,	3.445295e-09,	5617.1,	3.958032e-08,	5617.33,	1.759901e-10,	5617.48,	3.598573e-11,	5617.03,	2.203147e-09
2296.11,	1.399662,	1.665515e-06,	6,	5652.29,	3.4978e-12,	5652.14,	1.82318e-10,	5652.06,	3.427336e-09,	5651.99,	3.945852e-08,	5652.21,	1.748803e-10,	5652.36,	3.457684e-11,	5651.91,	2.199546e-09
2306.3,	1.365004,	1.894388e-06,	6,	5687.17,	3.229563e-12,	5687.02,	1.818498e-10,	5686.95,	3.48177e-09,	5686.875,	3.961571e-08,	5687.1,	1.750453e-10,	5687.25,	3.600723e-11,	5686.8,	2.208933e-09
2316.34,	1.33867,	1.741806e-06,	6,	5722.06,	3.273311e-12,	5721.91,	1.793575e-10,	5721.84,	3.453846e-09,	5721.76,	3.941915e-08,	5721.98,	1.759533e-10,	5722.13,	3.500037e-11,	5721.69,	2.21638e-09
2326.47,	1.316409,	1.894388e-06,	6,	5756.94,	3.552357e-12,	5756.79,	1.807852e-10,	5756.72,	3.437757e-09,	5756.64,	3.929928e-08,	5756.87,	1.74927e-10,	5757.02,	3.542974e-11,	5756.57,	2.206295e-09
2336.69,	1.296665,	2.237697e-06,	6,	5791.83,	3.122869e-12,	5791.68,	1.797586e-10,	5791.61,	3.437832e-09,	5791.53,	3.91826e-08,	5791.75,	1.741749e-10,	5791.9,	3.500569e-11,	5791.46,	2.208368e-09
2346.92,	1.279519,	1.894388e-06,	6,	5826.71,	3.181241e-12,	5826.56,	1.808764e-10,	5826.49,	3.446769e-09,	5826.41,	3.927862e-08,	5826.64,	1.733326e-10,	5826.79,	3.475574e-11,	5826.34,	2.211165e-09
2357,	1.264692,	1.932533e-06,	6,	5861.6,	3.085342e-12,	5861.45,	1.800334e-10,	5861.375,	3.411816e-09,	5861.3,	3.971103e-08,	5861.52,	1.756275e-10,	5861.67,	3.496923e-11,	5861.23,	2.20727e-09
2367.22,	1.251569,	1.970679e-06,	6,	5896.48,	3.082662e-12,	5896.34,	1.804773e-10,	5896.26,	3.462615e-09,	5896.19,	3.967801e-08,	5896.41,	1.751839e-10,	5896.56,	3.562347e-11,	5896.11,	2.228734e-09
2377.41,	1.240005,	1.818097e-06,	6,	5931.37,	2.99236e-12,	5931.22,	1.794297e-10,	5931.14,	3.45001e-09,	5931.07,	3.968086e-08,	5931.29,	1.747241e-10,	5931.44,	3.507505e-11,	5931,	2.214579e-09
2387.4,	1.229789,	1.551079e-06,	6,	5966.25,	3.256131e-12,	5966.1,	1.773325e-10,	5966.03,	3.467587e-09,	5965.95,	3.95397e-08,	5966.18,	1.752911e-10,	5966.33,	3.508102e-11,	5965.88,	2.211434e-09
2397.52,	1.220486,	1.741806e-06,	6,	6001.14,	3.282517e-12,	6000.99,	1.803296e-10,	6000.91,	3.403662e-09,	6000.84,	3.923864e-08,	6001.06,	1.73374e-10,	6001.21,	3.55043e-11,	6000.77,	2.198249e-09
2407.55,	1.212097,	1.398497e-06,	6,	6036.02,	3.01056e-12,	6035.87,	1.798248e-10,	6035.8,	3.429303e-09,	6035.72,	3.970599e-08,	6035.95,	1.741298e-10,	6036.1,	3.57147e-11,	6035.65,	2.211788e-09
2417.77,	1.204261,	1.322206e-06,	6,	6070.91,	3.186014e-12,	6070.76,	1.817183e-10,	6070.68,	3.410735e-09,	6070.61,	3.938551e-08,	6070.83,	1.735777e-10,	6070.98,	3.540487e-11,	6070.54,	2.216918e-09
2427.9,	1.197258,	2.123261e-06,	6,	6105.79,	3.57977e-12,	6105.64,	1.7817e-10,	6105.57,	3.488249e-09,	6105.49,	3.958901e-08,	6105.72,	1.742959e-10,	6105.87,	3.498443e-11,	6105.42,	2.211873e-09
2438.19,	1.190569,	1.436642e-06,	6,	,	,	,	,	,	,	,	,	,	,	,	,	,
2448.44,	1.184426,	1.62737e-06,	6,	,	,	,	,	,	,	,	,	,	,	,	,	,
2458.52,	1.178821,	1.169624e-06,	6,	,	,	,	,	,	,	,	,	,	,	,	,	,
2468.8,	1.173369,	1.551079e-06,	6,	,	,	,	,	,	,	,	,	,	,	,	,	,
2478.96,	1.168361,	2.428424e-06,	6,	,	,	,	,	,	,	,	,	,	,	,	,	,
2489.25,	1.163555,	1.665515e-06,	6,	,	,	,	,	,	,	,	,	,	,	,	,	,
2499.3,	1.159184,	1.398497e-06,	6,	,	,	,	,	,	,	,	,	,	,	,	,	,
2509.54,	1.154863,	1.741806e-06,	6,	,	,	,	,	,	,	,	,	,	,	,	,	,
2519.6,	1.150936,	1.856243e-06,	6,	,	,	,	,	,	,	,	,	,	,	,	,	,
2529.61,	1.147177,	1.665515e-06,	6,	,	,	,	,	,	,	,	,	,	,	,	,	,
2539.66,	1.143639,	1.398497e-06,	6,	,	,	,	,	,	,	,	,	,	,	,	,	,
2549.73,	1.140216,	1.62737e-06,	6,	,	,	,	,	,	,	,	,	,	,	,	,	,
2559.86,	1.136896,	1.589224e-06,	6,	,	,	,	,	,	,	,	,	,	,	,	,	,
2570.02,	1.133721,	1.932533e-06,	6,	,	,	,	,	,	,	,	,	,	,	,	,	,
2580.32,	1.535787,	0.005002306,	6,	,	,	,	,	,	,	,	,	,	,	,	,	,
2590.42,	1.602873,	0.005002306,	6,	,	,	,	,	,	,	,	,	,	,	,	,	,
2600.58,	1.611702,	0.005002306,	6,	,	,	,	,	,	,	,	,	,	,	,	,	,
2610.69,	1.617005,	0.005002192,	6,	,	,	,	,	,	,	,	,	,	,	,	,	,
2620.87,	1.620852,	0.005002192,	6,	,	,	,	,	,	,	,	,	,	,	,	,	,
2630.97,	1.623977,	0.005002039,	6,	,	,	,	,	,	,	,	,	,	,	,	,	,
2641.09,	1.626456,	0.005002421,	6,	,	,	,	,	,	,	,	,	,	,	,	,	,
2651.13,	1.628668,	0.005001963,	6,	,	,	,	,	,	,	,	,	,	,	,	,	,
2661.24,	1.630598,	0.005002306,	6,	,	,	,	,	,	,	,	,	,	,	,	,	,
2671.36,	1.632359,	0.005002344,	6,	,	,	,	,	,	,	,	,	,	,	,	,	,
2681.59,	1.633944,	0.005002154,	6,	,	,	,	,	,	,	,	,	,	,	,	,	,
2691.68,	1.635442,	0.005002039,	6,	,	,	,	,	,	,	,	,	,	,	,	,	,
2701.79,	1.636737,	0.005001695,	6,	,	,	,	,	,	,	,	,	,	,	,	,	,
2711.97,	1.638005,	0.005001963,	6,	,	,	,	,	,	,	,	,	,	,	,	,	,
2722.13,	1.639194,	0.005002344,	6,	,	,	,	,	,	,	,	,	,	,	,	,	,
2732.33,	1.640286,	0.005001505,	6,	,	,	,	,	,	,	,	,	,	,	,	,	,
2742.45,	1.641344,	0.005001848,	6,	,	,	,	,	,	,	,	,	,	,	,	,	,
2752.59,	1.642372,	0.005001887,	6,	,	,	,	,	,	,	,	,	,	,	,	,	,
2762.66,	1.643251,	0.005002229,	6,	,	,	,	,	,	,	,	,	,	,	,	,	,
2772.86,	1.64416,	0.005002535,	6,	,	,	,	,	,	,	,	,	,	,	,	,	,
2783.1,	1.64502,	0.005002268,	6,	,	,	,	,	,	,	,	,	,	,	,	,	,
2793.19,	1.645803,	0.005002192,	6,	,	,	,	,	,	,	,	,	,	,	,	,	,
2803.37,	1.64662,	0.005002115,	6,	,	,	,	,	,	,	,	,	,	,	,	,	,
2813.57,	1.647369,	0.005002344,	6,	,	,	,	,	,	,	,	,	,	,	,	,	,
2823.55,	1.648091,	0.005002268,	6,	,	,	,	,	,	,	,	,	,	,	,	,	,
2833.78,	1.648813,	0.00500265,	6,	,	,	,	,	,	,	,	,	,	,	,	,	,
2843.93,	1.649512,	0.00500181,	6,	,	,	,	,	,	,	,	,	,	,	,	,	,
2854.13,	1.650189,	0.005002688,	6,	,	,	,	,	,	,	,	,	,	,	,	,	,
2864.24,	1.650773,	0.005002268,	6,	,	,	,	,	,	,	,	,	,	,	,	,	,
2874.26,	1.651403,	0.00500181,	6,	,	,	,	,	,	,	,	,	,	,	,	,	,
2884.36,	1.511103,	1.894388e-06,	6,	,	,	,	,	,	,	,	,	,	,	,	,	,
2894.46,	1.466642,	1.932533e-06,	6,	,	,	,	,	,	,	,	,	,	,	,	,	,
2904.44,	1.437721,	1.741806e-06,	6,	,	,	,	,	,	,	,	,	,	,	,	,	,
2914.44,	1.414837,	1.932533e-06,	6,	,	,	,	,	,	,	,	,	,	,	,	,	,
2924.57,	1.395345,	1.665515e-06,	6,	,	,	,	,	,	,	,	,	,	,	,	,	,
2934.75,	1.378368,	1.436642e-06,	6,	,	,	,	,	,	,	,	,	,	,	,	,	,
2944.82,	1.3633,	1.970679e-06,	6,	,	,	,	,	,	,	,	,	,	,	,	,	,
2954.98,	1.349348,	1.856242e-06,	6,	,	,	,	,	,	,	,	,	,	,	,	,	,
2965,	1.336653,	1.894388e-06,	6,	,	,	,	,	,	,	,	,	,	,	,	,	,
2975.05,	1.324771,	2.008824e-06,	6,	,	,	,	,	,	,	,	,	,	,	,	,	,
2985.19,	1.313635,	1.284061e-06,	6,	,	,	,	,	,	,	,	,	,	,	,	,	,
2995.375,	1.303244,	1.818097e-06,	6,	,	,	,	,	,	,	,	,	,	,	,	,	,
3005.52,	1.293704,	1.856242e-06,	6,	,	,	,	,	,	,	,	,	,	,	,	,	,
3015.67,	1.284829,	1.970679e-06,	6,	,	,	,	,	,	,	,	,	,	,	,	,	,
3025.87,	1.276654,	2.237697e-06,	6,	,	,	,	,	,	,	,	,	,	,	,	,	,
3035.97,	1.269063,	1.856242e-06,	6,	,	,	,	,	,	,	,	,	,	,	,	,	,
3046,	1.261987,	1.741806e-06,	6,	,	,	,	,	,	,	,	,	,	,	,	,	,
3056.22,	1.255194,	1.398497e-06,	6,	,	,	,	,	,	,	,	,	,	,	,	,	,
3066.42,	1.248849,	1.245915e-06,	6,	,	,	,	,	,	,	,	,	,	,	,	,	,
3076.54,	1.242836,	1.741806e-06,	6,	,	,	,	,	,	,	,	,	,	,	,	,	,
3086.62,	1.237231,	1.818097e-06,	6,	,	,	,	,	,	,	,	,	,	,	,	,	,
3096.82,	1.23184,	1.665515e-06,	6,	,	,	,	,	,	,	,	,	,	,	,	,	,
3107.04,	1.226675,	1.665515e-06,	6,	,	,	,	,	,	,	,	,	,	,	,	,	,
3117.13,	1.221923,	2.199551e-06,	6,	,	,	,	,	,	,	,	,	,	,	,	,	,
3127.21,	1.21738,	1.665515e-06,	6,	,	,	,	,	,	,	,	,	,	,	,	,	,
3137.36,	1.212994,	1.779952e-06,	6,	,	,	,	,	,	,	,	,	,	,	,	,	,
3147.53,	1.2088,	1.818097e-06,	6,	,	,	,	,	,	,	,	,	,	,	,	,	,
3157.69,	1.204769,	2.161406e-06,	6,	,	,	,	,	,	,	,	,	,	,	,	,	,
3167.68,	1.200937,	1.551079e-06,	6,	,	,	,	,	,	,	,	,	,	,	,	,	,
3177.85,	1.34489,	0.0100031,	6,	,	,	,	,	,	,	,	,	,	,	,	,	,
3188.05,	1.658727,	0.01000279,	6,	,	,	,	,	,	,	,	,	,	,	,	,	,
3198.18,	1.665145,	0.01000222,	6,	,	,	,	,	,	,	,	,	,	,	,	,	,
3208.4,	1.669027,	0.01000287,	6,	,	,	,	,	,	,	,	,	,	,	,	,	,
3218.57,	1.671896,	0.01000268,	6,	,	,	,	,	,	,	,	,	,	,	,	,	,
3228.75,	1.674142,	0.01000279,	6,	,	,	,	,	,	,	,	,	,	,	,	,	,
3238.89,	1.676072,	0.01000287,	6,	,	,	,	,	,	,	,	,	,	,	,	,	,
3248.99,	1.677772,	0.01000207,	6,	,	,	,	,	,	,	,	,	,	,	,	,	,
3259.23,	1.679269,	0.01000234,	6,	,	,	,	,	,	,	,	,	,	,	,	,	,
3269.46,	1.68071,	0.01000234,	6,	,	,	,	,	,	,	,	,	,	,	,	,	,
3279.68,	1.681925,	0.01000287,	6,	,	,	,	,	,	,	,	,	,	,	,	,	,
3289.74,	1.683074,	0.01000268,	6,	,	,	,	,	,	,	,	,	,	,	,	,	,
3299.86,	1.684182,	0.01000321,	6,	,	,	,	,	,	,	,	,	,	,	,	,	,
3310.02,	1.685187,	0.01000279,	6,	,	,	,	,	,	,	,	,	,	,	,	,	,
3320.05,	1.686112,	0.01000245,	6,	,	,	,	,	,	,	,	,	,	,	,	,	,
3330.24,	1.686983,	0.01000283,	6,	,	,	,	,	,	,	,	,	,	,	,	,	,
3340.45,	1.687881,	0.01000249,	6,	,	,	,	,	,	,	,	,	,	,	,	,	,
3350.52,	1.688656,	0.01000215,	6,	,	,	,	,	,	,	,	,	,	,	,	,	,
3360.62,	1.689489,	0.01000279,	6,	,	,	,	,	,	,	,	,	,	,	,	,	,
3370.89,	1.690238,	0.01000222,	6,	,	,	,	,	,	,	,	,	,	,	,	,	,
3381.125,	1.690914,	0.01000257,	6,	,	,	,	,	,	,	,	,	,	,	,	,	,
3391.29,	1.69167,	0.01000291,	6,	,	,	,	,	,	,	,	,	,	,	,	,	,
3401.44,	1.692327,	0.01000234,	6,	,	,	,	,	,	,	,	,	,	,	,	,	,
3411.45,	1.692962,	0.01000249,	6,	,	,	,	,	,	,	,	,	,	,	,	,	,
3421.41,	1.693512,	0.01000241,	6,	,	,	,	,	,	,	,	,	,	,	,	,	,
3431.35,	1.694077,	0.01000264,	6,	,	,	,	,	,	,	,	,	,	,	,	,	,
3441.46,	1.694719,	0.01000211,	6,	,	,	,	,	,	,	,	,	,	,	,	,	,
3451.59,	1.695262,	0.01000241,	6,	,	,	,	,	,	,	,	,	,	,	,	,	,
3461.9,	1.6958,	0.01000257,	6,	,	,	,	,	,	,	,	,	,	,	,	,	,
3472.12,	1.696381,	0.01000222,	6,	,	,	,	,	,	,	,	,	,	,	,	,	,
3482.25,	1.548299,	1.169624e-06,	6,	,	,	,	,	,	,	,	,	,	,	,	,	,
3492.37,	1.498794,	1.856243e-06,	6,	,	,	,	,	,	,	,	,	,	,	,	,	,
3502.62,	1.470355,	1.62737e-06,	6,	,	,	,	,	,	,	,	,	,	,	,	,	,
3512.73,	1.448995,	1.322206e-06,	6,	,	,	,	,	,	,	,	,	,	,	,	,	,
3522.84,	1.431185,	1.970679e-06,	6,	,	,	,	,	,	,	,	,	,	,	,	,	,
3532.91,	1.415681,	1.284061e-06,	6,	,	,	,	,	,	,	,	,	,	,	,	,	,
3542.99,	1.401844,	1.970679e-06,	6,	,	,	,	,	,	,	,	,	,	,	,	,	,
3553.16,	1.389153,	1.512933e-06,	6,	,	,	,	,	,	,	,	,	,	,	,	,	,
3563.22,	1.377684,	1.856242e-06,	6,	,	,	,	,	,	,	,	,	,	,	,	,	,
3573.49,	1.366765,	2.581006e-06,	6,	,	,	,	,	,	,	,	,	,	,	,	,	,
3583.58,	1.356695,	1.436642e-06,	6,	,	,	,	,	,	,	,	,	,	,	,	,	,
3593.7,	1.347155,	1.512933e-06,	6,	,	,	,	,	,	,	,	,	,	,	,	,	,
3603.96,	1.338112,	2.161406e-06,	6,	,	,	,	,	,	,	,	,	,	,	,	,	,
3614.09,	1.329662,	1.741806e-06,	6,	,	,	,	,	,	,	,	,	,	,	,	,	,
3624.23,	1.321696,	1.741806e-06,	6,	,	,	,	,	,	,	,	,	,	,	,	,	,
3634.41,	1.314181,	1.360352e-06,	6,	,	,	,	,	,	,	,	,	,	,	,	,	,
3644.53,	1.307064,	1.665515e-06,	6,	,	,	,	,	,	,	,	,	,	,	,	,	,
3654.81,	1.300332,	1.894388e-06,	6,	,	,	,	,	,	,	,	,	,	,	,	,	,
3664.88,	1.294029,	1.665515e-06,	6,	,	,	,	,	,	,	,	,	,	,	,	,	,
3675.09,	1.288042,	2.199551e-06,	6,	,	,	,	,	,	,	,	,	,	,	,	,	,
3685.19,	1.282388,	2.04697e-06,	6,	,	,	,	,	,	,	,	,	,	,	,	,	,
3695.29,	1.276975,	2.275842e-06,	6,	,	,	,	,	,	,	,	,	,	,	,	,	,
3705.4,	1.271855,	1.62737e-06,	6,	,	,	,	,	,	,	,	,	,	,	,	,	,
3715.43,	1.266969,	1.703661e-06,	6,	,	,	,	,	,	,	,	,	,	,	,	,	,
3725.57,	1.262285,	1.551079e-06,	6,	,	,	,	,	,	,	,	,	,	,	,	,	,
3735.7,	1.25772,	1.894388e-06,	6,	,	,	,	,	,	,	,	,	,	,	,	,	,
3745.85,	1.253441,	2.008824e-06,	6,	,	,	,	,	,	,	,	,	,	,	,	,	,
3755.99,	1.249349,	1.551079e-06,	6,	,	,	,	,	,	,	,	,	,	,	,	,	,
3766,	1.245319,	1.62737e-06,	6,	,	,	,	,	,	,	,	,	,	,	,	,	,
3776.16,	1.241525,	1.818097e-06,	6,	,	,	,	,	,	,	,	,	,	,	,	,	,
3786.34,	1.692213,	0.01500309,	6,	,	,	,	,	,	,	,	,	,	,	,	,	,
3796.45,	1.698367,	0.01500271,	6,	,	,	,	,	,	,	,	,	,	,	,	,	,
3806.61,	1.701955,	0.01500248,	6,	,	,	,	,	,	,	,	,	,	,	,	,	,
3816.75,	1.704411,	0.01500313,	6,	,	,	,	,	,	,	,	,	,	,	,	,	,
3826.91,	1.706375,	0.01500317,	6,	,	,	,	,	,	,	,	,	,	,	,	,	,
3836.94,	1.70806,	0.01500294,	6,	,	,	,	,	,	,	,	,	,	,	,	,	,
3847.09,	1.70955,	0.01500302,	6,	,	,	,	,	,	,	,	,	,	,	,	,	,
3857.21,	1.710853,	0.01500309,	6,	,	,	,	,	,	,	,	,	,	,	,	,	,
3867.38,	1.712003,	0.01500317,	6,	,	,	,	,	,	,	,	,	,	,	,	,	,
3877.49,	1.713061,	0.01500309,	6,	,	,	,	,	,	,	,	,	,	,	,	,	,
3887.67,	1.714023,	0.01500321,	6,	,	,	,	,	,	,	,	,	,	,	,	,	,
3897.85,	1.714944,	0.01500321,	6,	,	,	,	,	,	,	,	,	,	,	,	,	,
3907.89,	1.715842,	0.01500366,	6,	,	,	,	,	,	,	,	,	,	,	,	,	,
3917.91,	1.716587,	0.01500374,	6,	,	,	,	,	,	,	,	,	,	,	,	,	,
3927.98,	1.717404,	0.01500271,	6,	,	,	,	,	,	,	,	,	,	,	,	,	,
3938.05,	1.718119,	0.0150034,	6,	,	,	,	,	,	,	,	,	,	,	,	,	,
3948.08,	1.718791,	0.01500298,	6,	,	,	,	,	,	,	,	,	,	,	,	,	,
3958.32,	1.719475,	0.0150029,	6,	,	,	,	,	,	,	,	,	,	,	,	,	,
3968.58,	1.720155,	0.01500267,	6,	,	,	,	,	,	,	,	,	,	,	,	,	,
3978.71,	1.720816,	0.01500302,	6,	,	,	,	,	,	,	,	,	,	,	,	,	,
3988.88,	1.721324,	0.01500328,	6,	,	,	,	,	,	,	,	,	,	,	,	,	,
3999.08,	1.721943,	0.01500336,	6,	,	,	,	,	,	,	,	,	,	,	,	,	,
4009.25,	1.722486,	0.01500305,	6,	,	,	,	,	,	,	,	,	,	,	,	,	,
4019.32,	1.722952,	0.01500286,	6,	,	,	,	,	,	,	,	,	,	,	,	,	,
4029.51,	1.723494,	0.01500282,	6,	,	,	,	,	,	,	,	,	,	,	,	,	,
4039.63,	1.724048,	0.01500275,	6,	,	,	,	,	,	,	,	,	,	,	,	,	,
4049.73,	1.724606,	0.0150029,	6,	,	,	,	,	,	,	,	,	,	,	,	,	,
4059.72,	1.725026,	0.01500325,	6,	,	,	,	,	,	,	,	,	,	,	,	,	,
4069.86,	1.725496,	0.01500313,	6,	,	,	,	,	,	,	,	,	,	,	,	,	,
4079.97,	1.587301,	2.199551e-06,	6,	,	,	,	,	,	,	,	,	,	,	,	,	,
4090.13,	1.521693,	1.665515e-06,	6,	,	,	,	,	,	,	,	,	,	,	,	,	,
4100.21,	1.492865,	2.04697e-06,	6,	,	,	,	,	,	,	,	,	,	,	,	,	,
4110.32,	1.47212,	1.856242e-06,	6,	,	,	,	,	,	,	,	,	,	,	,	,	,
4120.33,	1.455341,	1.703661e-06,	6,	,	,	,	,	,	,	,	,	,	,	,	,	,
4130.44,	1.440697,	2.313988e-06,	6,	,	,	,	,	,	,	,	,	,	,	,	,	,
4140.51,	1.4278,	1.894388e-06,	6,	,	,	,	,	,	,	,	,	,	,	,	,	,
4150.65,	1.416056,	1.932533e-06,	6,	,	,	,	,	,	,	,	,	,	,	,	,	,
4160.71,	1.405286,	1.970679e-06,	6,	,	,	,	,	,	,	,	,	,	,	,	,	,
4170.84,	1.395231,	1.665515e-06,	6,	,	,	,	,	,	,	,	,	,	,	,	,	,
4180.8,	1.386024,	1.970679e-06,	6,	,	,	,	,	,	,	,	,	,	,	,	,	,
4191.02,	1.377118,	1.665515e-06,	6,	,	,	,	,	,	,	,	,	,	,	,	,	,
4201.21,	1.368794,	1.551079e-06,	6,	,	,	,	,	,	,	,	,	,	,	,	,	,
4211.3,	1.360916,	2.581006e-06,	6,	,	,	,	,	,	,	,	,	,	,	,	,	,
4221.41,	1.353436,	1.894388e-06,	6,	,	,	,	,	,	,	,	,	,	,	,	,	,
4231.43,	1.346349,	1.932533e-06,	6,	,	,	,	,	,	,	,	,	,	,	,	,	,
4241.65,	1.339411,	1.970679e-06,	6,	,	,	,	,	,	,	,	,	,	,	,	,	,
4251.73,	1.333023,	1.932533e-06,	6,	,	,	,	,	,	,	,	,	,	,	,	,	,
4261.8,	1.326934,	1.28406e-06,	6,	,	,	,	,	,	,	,	,	,	,	,	,	,
4271.92,	1.321027,	1.818097e-06,	6,	,	,	,	,	,	,	,	,	,	,	,	,	,
4282.12,	1.315377,	1.589224e-06,	6,	,	,	,	,	,	,	,	,	,	,	,	,	,
4292.21,	1.310029,	1.856243e-06,	6,	,	,	,	,	,	,	,	,	,	,	,	,	,
4302.33,	1.304905,	2.46657e-06,	6,	,	,	,	,	,	,	,	,	,	,	,	,	,
4312.56,	1.300034,	2.237697e-06,	6,	,	,	,	,	,	,	,	,	,	,	,	,	,
4322.66,	1.295335,	1.818097e-06,	6,	,	,	,	,	,	,	,	,	,	,	,	,	,
4332.82,	1.290785,	1.436642e-06,	6,	,	,	,	,	,	,	,	,	,	,	,	,	,
4342.9,	1.286518,	1.779952e-06,	6,	,	,	,	,	,	,	,	,	,	,	,	,	,
4353.01,	1.282308,	1.169624e-06,	6,	,	,	,	,	,	,	,	,	,	,	,	,	,
4363.17,	1.278285,	1.512933e-06,	6,	,	,	,	,	,	,	,	,	,	,	,	,	,
4373.39,	1.274304,	1.741806e-06,	6,	,	,	,	,	,	,	,	,	,	,	,	,	,
4383.5,	1.714482,	0.02000293,	6,	,	,	,	,	,	,	,	,	,	,	,	,	,
4393.63,	1.721844,	0.02000346,	6,	,	,	,	,	,	,	,	,	,	,	,	,	,
4403.72,	1.725496,	0.02000293,	6,	,	,	,	,	,	,	,	,	,	,	,	,	,
4413.92,	1.727922,	0.02000327,	6,	,	,	,	,	,	,	,	,	,	,	,	,	,
4424.01,	1.72984,	0.02000297,	6,	,	,	,	,	,	,	,	,	,	,	,	,	,
4434.24,	1.731448,	0.02000278,	6,	,	,	,	,	,	,	,	,	,	,	,	,	,
4444.43,	1.732812,	0.02000259,	6,	,	,	,	,	,	,	,	,	,	,	,	,	,
4454.55,	1.733882,	0.02000323,	6,	,	,	,	,	,	,	,	,	,	,	,	,	,
4464.74,	1.735059,	0.02000194,	6,	,	,	,	,	,	,	,	,	,	,	,	,	,
4474.86,	1.736014,	0.02000247,	6,	,	,	,	,	,	,	,	,	,	,	,	,	,
4484.97,	1.736946,	0.0200027,	6,	,	,	,	,	,	,	,	,	,	,	,	,	,
4495.03,	1.737741,	0.02000285,	6,	,	,	,	,	,	,	,	,	,	,	,	,	,
4505.25,	1.738508,	0.02000282,	6,	,	,	,	,	,	,	,	,	,	,	,	,	,
4515.39,	1.739238,	0.02000335,	6,	,	,	,	,	,	,	,	,	,	,	,	,	,
4525.66,	1.739968,	0.02000323,	6,	,	,	,	,	,	,	,	,	,	,	,	,	,
4535.67,	1.740594,	0.02000297,	6,	,	,	,	,	,	,	,	,	,	,	,	,	,
4545.9,	1.74116,	0.02000301,	6,	,	,	,	,	,	,	,	,	,	,	,	,	,
4556.07,	1.741775,	0.02000304,	6,	,	,	,	,	,	,	,	,	,	,	,	,	,
4566.16,	1.742355,	0.02000282,	6,	,	,	,	,	,	,	,	,	,	,	,	,	,
4576.2,	1.742913,	0.02000308,	6,	,	,	,	,	,	,	,	,	,	,	,	,	,
4586.3,	1.743372,	0.02000362,	6,	,	,	,	,	,	,	,	,	,	,	,	,	,
4596.3,	1.743949,	0.02000304,	6,	,	,	,	,	,	,	,	,	,	,	,	,	,
4606.56,	1.744399,	0.02000327,	6,	,	,	,	,	,	,	,	,	,	,	,	,	,
4616.61,	1.744907,	0.02000282,	6,	,	,	,	,	,	,	,	,	,	,	,	,	,
4626.88,	1.745362,	0.02000289,	6,	,	,	,	,	,	,	,	,	,	,	,	,	,
4636.93,	1.745786,	0.02000297,	6,	,	,	,	,	,	,	,	,	,	,	,	,	,
4647.15,	1.746264,	0.02000274,	6,	,	,	,	,	,	,	,	,	,	,	,	,	,
4657.19,	1.746653,	0.02000304,	6,	,	,	,	,	,	,	,	,	,	,	,	,	,
4667.32,	1.74702,	0.02000259,	6,	,	,	,	,	,	,	,	,	,	,	,	,	,
4677.73,	1.687223,	1.894388e-06,	6,	,	,	,	,	,	,	,	,	,	,	,	,	,
4687.91,	1.540528,	2.161406e-06,	6,	,	,	,	,	,	,	,	,	,	,	,	,	,
4698.07,	1.509033,	1.512933e-06,	6,	,	,	,	,	,	,	,	,	,	,	,	,	,
4708.37,	1.487661,	1.474788e-06,	6,	,	,	,	,	,	,	,	,	,	,	,	,	,
4718.47,	1.471142,	1.131479e-06,	6,	,	,	,	,	,	,	,	,	,	,	,	,	,
4728.52,	1.457171,	1.589224e-06,	6,	,	,	,	,	,	,	,	,	,	,	,	,	,
4738.59,	1.444858,	1.665515e-06,	6,	,	,	,	,	,	,	,	,	,	,	,	,	,
4748.85,	1.433542,	1.703661e-06,	6,	,	,	,	,	,	,	,	,	,	,	,	,	,
4758.9,	1.423418,	1.665515e-06,	6,	,	,	,	,	,	,	,	,	,	,	,	,	,
4769.18,	1.413886,	2.085115e-06,	6,	,	,	,	,	,	,	,	,	,	,	,	,	,
4779.33,	1.405087,	2.352133e-06,	6,	,	,	,	,	,	,	,	,	,	,	,	,	,
4789.61,	1.396767,	1.741806e-06,	6,	,	,	,	,	,	,	,	,	,	,	,	,	,
4799.92,	1.388885,	1.665515e-06,	6,	,	,	,	,	,	,	,	,	,	,	,	,	,
4810.02,	1.381474,	1.665515e-06,	6,	,	,	,	,	,	,	,	,	,	,	,	,	,
4820.1,	1.374429,	1.818097e-06,	6,	,	,	,	,	,	,	,	,	,	,	,	,	,
4830.34,	1.367602,	2.123261e-06,	6,	,	,	,	,	,	,	,	,	,	,	,	,	,
4840.43,	1.361191,	2.123261e-06,	6,	,	,	,	,	,	,	,	,	,	,	,	,	,
4850.51,	1.355098,	1.703661e-06,	6,	,	,	,	,	,	,	,	,	,	,	,	,	,
4860.57,	1.349203,	2.390279e-06,	6,	,	,	,	,	,	,	,	,	,	,	,	,	,
4870.6,	1.34353,	1.551079e-06,	6,	,	,	,	,	,	,	,	,	,	,	,	,	,
4880.7,	1.338151,	1.703661e-06,	6,	,	,	,	,	,	,	,	,	,	,	,	,	,
4890.81,	1.332905,	1.62737e-06,	6,	,	,	,	,	,	,	,	,	,	,	,	,	,
4900.92,	1.327973,	1.970679e-06,	6,	,	,	,	,	,	,	,	,	,	,	,	,	,
4911.01,	1.323205,	2.085115e-06,	6,	,	,	,	,	,	,	,	,	,	,	,	,	,
4921.19,	1.318533,	1.894388e-06,	6,	,	,	,	,	,	,	,	,	,	,	,	,	,
4931.33,	1.31399,	1.703661e-06,	6,	,	,	,	,	,	,	,	,	,	,	,	,	,
4941.48,	1.309769,	1.741806e-06,	6,	,	,	,	,	,	,	,	,	,	,	,	,	,
4951.4,	1.305715,	2.04697e-06,	6,	,	,	,	,	,	,	,	,	,	,	,	,	,
4961.54,	1.301773,	1.360352e-06,	6,	,	,	,	,	,	,	,	,	,	,	,	,	,
4971.66,	1.297868,	1.665515e-06,	6,	,	,	,	,	,	,	,	,	,	,	,	,	,
4977.44,	1.295717,	1.551079e-06,	6,	,	,	,	,	,	,	,	,	,	,	,	,	,