File: Quantification/development/HER_repeatability_single_day/HERonPt_RnD1_3.csv
ixdat version = 0.2.3
name = 2022-04-26 15_09_49 HER_repetition_3 AND 2022-04-26 15_09_49 HER_repetition_3_01_01_CVA_DUSB0_C01.mpt AND 2022-04-26 15_09_49 HER_repetition_3_01_02_CP_DUSB0_C01.mpt
technique = EC-MS
tstamp = 1650978589.0
backend_name = BackendBase(none, address=none)
id = 66
timecol 'time/s' for: 'Ewe/V' and 'raw_current' and 'selector'
timecol 'C3M32 time [s]' for: 'M32'
timecol 'C5M44 time [s]' for: 'M44'
timecol 'C6M18 time [s]' for: 'M18'
timecol 'C4M40 time [s]' for: 'M40'
timecol 'C0M2 time [s]' for: 'M2'
timecol 'C1M4 time [s]' for: 'M4'
timecol 'C2M28 time [s]' for: 'M28'
aliases = {"M2": ["M2 [A]"], "M4": ["M4 [A]"], "M28": ["M28 [A]"], "M32": ["M32 [A]"], "M40": ["M40 [A]"], "M44": ["M44 [A]"], "M18": ["M18 [A]"], "t": ["time/s"], "raw_potential": ["Ewe/V"], "raw_current": ["<I>/mA", "I/mA"], "cycle": ["cycle number"]}
N_header_lines = 18

time/s,	Ewe/V,	raw_current,	selector,	C3M32 time [s],	M32,	C5M44 time [s],	M44,	C6M18 time [s],	M18,	C4M40 time [s],	M40,	C0M2 time [s],	M2,	C1M4 time [s],	M4,	C2M28 time [s],	M28
49.0,	0.377218,	-0.000155107,	0,	0.738858,	2.457109e-10,	0.887861,	2.28841e-11,	0.961862,	3.688529e-09,	0.812859,	3.978985e-12,	0.514852,	2.684012e-09,	0.589854,	3.730339e-08,	0.663856,	2.01273e-10
65.1692,	0.5002324,	0.000463043,	0,	18.1824,	2.416025e-10,	18.3314,	2.219885e-11,	18.4054,	3.574433e-09,	18.2564,	3.512024e-12,	17.9584,	2.596597e-09,	18.0334,	3.691997e-08,	18.1074,	1.91934e-10
74.4642,	0.686231,	0.00177169,	0,	35.6234,	2.449081e-10,	35.7724,	2.232095e-11,	35.8474,	3.660593e-09,	35.6984,	3.691458e-12,	35.4004,	2.59034e-09,	35.4744,	3.610334e-08,	35.5494,	1.966554e-10
83.7594,	0.872143,	0.00655824,	0,	53.0664,	2.437078e-10,	53.2153,	2.242821e-11,	53.2893,	3.6156e-09,	53.1404,	3.584133e-12,	52.8424,	2.573193e-09,	52.9174,	3.601138e-08,	52.9914,	1.948021e-10
93.0545,	1.05805,	0.00679575,	0,	70.5092,	2.376556e-10,	70.6582,	2.684387e-11,	70.7322,	3.639351e-09,	70.5832,	3.526468e-12,	70.2852,	2.593618e-09,	70.3602,	3.682904e-08,	70.4342,	1.938849e-10
102.35,	1.24398,	0.00826516,	0,	87.9511,	2.414156e-10,	88.1,	3.470985e-11,	88.175,	3.609516e-09,	88.0261,	3.623645e-12,	87.7281,	2.593619e-09,	87.8021,	3.576172e-08,	87.8771,	1.94009e-10
111.645,	1.42979,	0.00931838,	0,	105.394,	2.453827e-10,	105.543,	4.018068e-11,	105.618,	3.613766e-09,	105.469,	3.801594e-12,	105.171,	2.581162e-09,	105.245,	3.594566e-08,	105.32,	1.97684e-10
120.94,	1.61581,	0.044346,	0,	122.837,	1.674316e-09,	122.986,	5.032852e-11,	123.06,	3.646824e-09,	122.911,	3.801877e-12,	122.613,	2.464066e-09,	122.688,	3.459804e-08,	122.762,	2.009441e-10
129.947,	1.60497,	0.00691044,	0,	140.278,	4.511844e-10,	140.427,	4.06177e-11,	140.502,	3.603301e-09,	140.353,	3.699858e-12,	140.055,	2.492307e-09,	140.129,	3.563955e-08,	140.204,	1.955641e-10
139.242,	1.41901,	-1.04831e-05,	0,	157.721,	2.743766e-10,	157.87,	3.270136e-11,	157.945,	3.584941e-09,	157.796,	3.632865e-12,	157.498,	2.563091e-09,	157.572,	3.590037e-08,	157.647,	1.971984e-10
148.537,	1.23315,	-0.000575876,	0,	175.164,	2.472657e-10,	175.313,	3.262085e-11,	175.387,	3.586109e-09,	175.238,	3.798839e-12,	174.94,	2.551096e-09,	175.015,	3.572091e-08,	175.089,	1.968132e-10
157.832,	1.04723,	-0.0016458,	0,	192.608,	2.44316e-10,	192.757,	2.923832e-11,	192.831,	3.612241e-09,	192.682,	3.83845e-12,	192.384,	2.562958e-09,	192.459,	3.675269e-08,	192.533,	1.969349e-10
167.127,	0.861297,	-0.00638531,	0,	210.049,	2.459637e-10,	210.198,	2.631885e-11,	210.273,	3.68016e-09,	210.124,	3.532115e-12,	209.826,	6.585218e-09,	209.9,	3.604173e-08,	209.975,	1.936999e-10
176.423,	0.675402,	-0.0140928,	0,	227.491,	2.429056e-10,	227.64,	2.452097e-11,	227.714,	3.628487e-09,	227.565,	3.783561e-12,	227.267,	2.608786e-09,	227.342,	3.686908e-08,	227.416,	1.932283e-10
185.718,	0.489481,	-0.00157568,	0,	244.935,	2.46466e-10,	245.084,	2.640608e-11,	245.158,	3.647532e-09,	245.009,	4.062172e-12,	244.711,	2.594761e-09,	244.786,	3.592617e-08,	244.86,	1.95194e-10
195.013,	0.303493,	-0.00446599,	0,	262.376,	2.452191e-10,	262.525,	3.173308e-11,	262.6,	3.646219e-09,	262.451,	3.588335e-12,	262.153,	2.570461e-09,	262.227,	3.582491e-08,	262.302,	1.976853e-10
204.308,	0.117577,	-0.0119327,	0,	279.819,	2.473263e-10,	279.968,	3.462771e-11,	280.043,	3.586677e-09,	279.894,	3.758702e-12,	279.596,	2.583712e-09,	279.67,	3.553404e-08,	279.745,	1.95204e-10
212.846,	0.074254,	0.00906515,	0,	297.262,	2.504954e-09,	297.411,	4.163303e-11,	297.485,	3.693262e-09,	297.336,	3.529759e-12,	297.038,	2.476245e-09,	297.113,	3.428058e-08,	297.187,	2.033405e-10
222.141,	0.260152,	0.00493386,	0,	314.703,	3.417249e-10,	314.852,	3.11918e-11,	314.927,	3.621774e-09,	314.777,	3.638191e-12,	314.48,	2.499599e-09,	314.553,	3.551141e-08,	314.628,	1.94316e-10
230.867,	0.434562,	0.000644621,	1,	332.147,	2.686397e-10,	332.296,	2.779471e-11,	332.371,	3.609597e-09,	332.222,	3.771449e-12,	331.924,	2.547907e-09,	331.998,	3.675997e-08,	332.073,	1.971701e-10
240.162,	0.620534,	0.00104948,	1,	349.59,	2.485859e-10,	349.739,	2.805021e-11,	349.813,	3.608777e-09,	349.664,	3.741341e-12,	349.366,	2.542792e-09,	349.441,	3.592601e-08,	349.515,	1.966727e-10
249.457,	0.806444,	0.00327735,	1,	367.033,	2.454452e-10,	367.182,	2.577739e-11,	367.256,	3.63814e-09,	367.107,	3.452217e-12,	366.809,	2.56263e-09,	366.884,	3.554426e-08,	366.958,	1.91773e-10
258.752,	0.992403,	0.00639237,	1,	384.474,	2.448191e-10,	384.623,	2.41668e-11,	384.698,	3.574317e-09,	384.549,	3.400612e-12,	384.251,	2.729971e-09,	384.325,	3.591459e-08,	384.4,	1.945916e-10
268.047,	1.17826,	0.00678054,	1,	401.918,	2.46738e-10,	402.067,	2.335463e-11,	402.141,	3.593011e-09,	401.992,	3.465558e-12,	401.694,	2.584779e-09,	401.769,	3.680725e-08,	401.843,	1.968696e-10
277.342,	1.364179,	0.00765247,	1,	419.36,	2.541699e-10,	419.509,	2.539841e-11,	419.583,	3.60385e-09,	419.434,	4.205357e-12,	419.136,	2.576846e-09,	419.211,	3.586375e-08,	419.285,	2.391002e-10
286.638,	1.550154,	0.0161117,	1,	436.802,	2.498397e-10,	436.951,	2.933015e-11,	437.026,	3.607185e-09,	436.877,	3.545075e-12,	436.579,	2.577381e-09,	436.653,	3.566323e-08,	436.728,	1.960382e-10
295.66,	1.670318,	0.0592063,	1,	454.244,	3.157867e-10,	454.394,	3.388785e-11,	454.468,	3.650962e-09,	454.319,	3.520057e-12,	454.022,	2.568009e-09,	454.095,	3.557223e-08,	454.171,	1.979469e-10
304.955,	1.48439,	0.000237905,	1,	471.687,	9.821574e-10,	471.836,	3.448611e-11,	471.91,	3.618494e-09,	471.761,	3.708264e-12,	471.463,	2.406527e-09,	471.538,	3.583592e-08,	471.612,	2.024924e-10
314.25,	1.29851,	-0.000421447,	1,	489.128,	3.026886e-10,	489.277,	3.019643e-11,	489.352,	3.666307e-09,	489.204,	3.808778e-12,	488.906,	2.516278e-09,	488.98,	3.586045e-08,	489.055,	2.055244e-10
323.545,	1.11255,	-0.00116467,	1,	506.572,	2.680829e-10,	506.721,	2.62797e-11,	506.796,	3.580666e-09,	506.647,	3.440373e-12,	506.349,	2.548441e-09,	506.423,	3.563555e-08,	506.498,	1.93894e-10
332.84,	0.926704,	-0.0037181,	1,	524.015,	2.486973e-10,	524.164,	2.627245e-11,	524.238,	3.621364e-09,	524.089,	3.827016e-12,	523.791,	2.541709e-09,	523.866,	3.578366e-08,	523.94,	1.922258e-10
342.135,	0.740758,	-0.0430317,	1,	541.457,	2.466426e-10,	541.606,	2.527744e-11,	541.68,	3.592493e-09,	541.531,	3.929107e-12,	541.233,	2.563485e-09,	541.308,	3.601597e-08,	541.382,	1.969693e-10
351.43,	0.554847,	-0.00220443,	1,	558.9,	2.456133e-10,	559.049,	2.369377e-11,	559.124,	3.59961e-09,	558.975,	3.805149e-12,	558.677,	2.618423e-09,	558.751,	3.581459e-08,	558.826,	1.950185e-10
360.726,	0.368905,	-0.00219447,	1,	576.342,	2.469548e-10,	576.491,	2.4041e-11,	576.566,	3.565021e-09,	576.417,	3.683717e-12,	576.118,	2.573762e-09,	576.194,	3.589163e-08,	576.267,	1.990043e-10
370.021,	0.182923,	-0.00665496,	1,	593.786,	2.453562e-10,	593.935,	2.593375e-11,	594.009,	3.577573e-09,	593.86,	3.815876e-12,	593.562,	2.571507e-09,	593.637,	3.58249e-08,	593.711,	1.919254e-10
378.829,	0.0140154,	0.00250913,	1,	611.227,	2.455143e-10,	611.376,	2.881602e-11,	611.451,	3.561176e-09,	611.302,	3.746811e-12,	611.004,	2.554032e-09,	611.078,	3.649075e-08,	611.153,	1.944493e-10
388.124,	0.200146,	0.00576574,	1,	628.67,	1.137413e-09,	628.819,	3.318976e-11,	628.894,	3.582135e-09,	628.745,	3.455569e-12,	628.447,	2.472912e-09,	628.521,	3.481887e-08,	628.596,	1.960906e-10
396.992,	0.377485,	0.00134792,	2,	646.113,	5.162437e-10,	646.262,	3.205563e-11,	646.336,	3.6192e-09,	646.187,	3.657072e-12,	645.889,	2.453251e-09,	645.964,	3.547013e-08,	646.038,	1.974781e-10
406.145,	0.560511,	0.00071519,	2,	663.555,	2.801509e-10,	663.704,	2.756407e-11,	663.779,	3.61777e-09,	663.63,	3.450658e-12,	663.332,	2.512196e-09,	663.406,	3.557015e-08,	663.481,	1.921012e-10
415.44,	0.746482,	0.00161785,	2,	680.997,	2.528455e-10,	681.147,	2.700042e-11,	681.221,	3.619021e-09,	681.072,	3.647785e-12,	680.774,	2.545312e-09,	680.849,	3.559509e-08,	680.924,	1.931559e-10
424.735,	0.9324373,	0.00644152,	2,	698.44,	2.494585e-10,	698.589,	2.54187e-11,	698.663,	3.579787e-09,	698.514,	3.809517e-12,	698.216,	2.552617e-09,	698.291,	3.663261e-08,	698.365,	1.916576e-10
434.03,	1.11829,	0.00623604,	2,	715.883,	2.458969e-10,	716.032,	2.504903e-11,	716.106,	3.63202e-09,	715.957,	3.704927e-12,	715.659,	1.141249e-08,	715.734,	3.557552e-08,	715.808,	1.927804e-10
443.325,	1.30422,	0.00737556,	2,	733.324,	2.445831e-10,	733.473,	2.405944e-11,	733.548,	3.63152e-09,	733.399,	3.634622e-12,	733.101,	2.583004e-09,	733.175,	3.669442e-08,	733.25,	1.99158e-10
452.62,	1.49009,	0.00935793,	2,	750.768,	2.556595e-10,	750.917,	2.461517e-11,	750.991,	3.582976e-09,	750.842,	4.478808e-12,	750.544,	2.56563e-09,	750.619,	3.647255e-08,	750.693,	2.721885e-10
461.915,	1.67604,	0.170205,	2,	768.211,	2.486203e-10,	768.36,	2.718479e-11,	768.434,	3.585339e-09,	768.285,	3.624395e-12,	767.987,	2.575329e-09,	768.062,	3.565233e-08,	768.136,	1.961258e-10
470.937,	1.54441,	0.0011951,	2,	785.653,	2.466022e-10,	785.802,	3.028201e-11,	785.877,	3.632141e-09,	785.728,	3.479739e-12,	785.43,	2.552739e-09,	785.504,	3.577364e-08,	785.579,	1.975853e-10
480.233,	1.35847,	-0.00029439,	2,	803.095,	2.939809e-09,	803.244,	3.881767e-11,	803.319,	3.689484e-09,	803.17,	3.761205e-12,	802.872,	2.482737e-09,	802.946,	3.407632e-08,	803.021,	2.059529e-10
489.528,	1.17253,	-0.000870355,	2,	820.538,	3.667956e-10,	820.687,	2.898653e-11,	820.761,	3.604762e-09,	820.612,	3.643569e-12,	820.314,	2.479214e-09,	820.389,	3.645799e-08,	820.463,	1.976198e-10
498.823,	0.986644,	-0.00244725,	2,	837.98,	2.708562e-10,	838.129,	2.664824e-11,	838.204,	3.615565e-09,	838.055,	3.766588e-12,	837.757,	2.528335e-09,	837.831,	3.569255e-08,	837.906,	2.088482e-10
508.118,	0.8007108,	-0.0141384,	2,	855.423,	2.511284e-10,	855.572,	2.608062e-11,	855.647,	3.626017e-09,	855.498,	3.754918e-12,	855.2,	2.546499e-09,	855.274,	3.541921e-08,	855.349,	1.967147e-10
517.413,	0.6148212,	-0.00387247,	2,	872.866,	2.51364e-10,	873.015,	2.50851e-11,	873.089,	3.584679e-09,	872.94,	3.75644e-12,	872.642,	2.55084e-09,	872.717,	3.668717e-08,	872.791,	1.943974e-10
526.708,	0.4289026,	-0.00144193,	2,	890.309,	2.44241e-10,	890.458,	2.428036e-11,	890.532,	3.592735e-09,	890.383,	3.803622e-12,	890.085,	2.78232e-09,	890.16,	3.538687e-08,	890.234,	1.922668e-10
536.003,	0.242889,	-0.00496503,	2,	907.75,	2.46367e-10,	907.899,	2.311641e-11,	907.974,	3.568369e-09,	907.825,	3.655231e-12,	907.527,	2.568751e-09,	907.601,	3.556436e-08,	907.676,	1.954736e-10
545.298,	0.0570129,	-0.0134569,	2,	925.193,	2.466398e-10,	925.342,	2.386675e-11,	925.416,	3.587397e-09,	925.267,	3.623236e-12,	924.969,	2.571675e-09,	925.044,	3.649071e-08,	925.118,	1.970893e-10
554.107,	0.140199,	0.00817977,	2,	942.636,	2.429911e-10,	942.785,	2.306389e-11,	942.859,	3.538819e-09,	942.71,	3.591725e-12,	942.412,	2.557221e-09,	942.487,	3.540658e-08,	942.561,	1.94524e-10
563.402,	0.326146,	0.00431211,	2,	960.078,	2.426195e-10,	960.227,	2.351407e-11,	960.302,	3.539292e-09,	960.153,	3.459175e-12,	959.855,	2.546377e-09,	959.929,	3.627243e-08,	960.004,	1.932784e-10
572.127,	0.500494,	0.000518065,	3,	977.52,	2.433471e-10,	977.669,	2.34615e-11,	977.744,	3.566901e-09,	977.595,	3.498981e-12,	977.297,	2.562817e-09,	977.371,	3.546659e-08,	977.446,	1.915036e-10
581.422,	0.686537,	0.00121225,	3,	994.964,	2.41905e-10,	995.113,	2.340548e-11,	995.187,	3.576015e-09,	995.038,	3.862655e-12,	994.74,	2.56506e-09,	994.815,	3.551967e-08,	994.889,	1.902838e-10
590.717,	0.872439,	0.00679438,	3,	1012.4,	2.430949e-10,	1012.55,	2.351283e-11,	1012.63,	3.577798e-09,	1012.48,	3.67603e-12,	1012.18,	2.56038e-09,	1012.26,	3.545096e-08,	1012.33,	1.928273e-10
600.012,	1.05836,	0.00606619,	3,	1029.85,	2.419078e-10,	1030,	2.33798e-11,	1030.07,	3.582374e-09,	1029.92,	3.723087e-12,	1029.625,	2.569182e-09,	1029.7,	3.562064e-08,	1029.77,	1.940912e-10
609.308,	1.24427,	0.0070487,	3,	1047.29,	2.414417e-10,	1047.44,	2.341961e-11,	1047.51,	3.559279e-09,	1047.37,	3.45143e-12,	1047.07,	2.562682e-09,	1047.14,	3.559746e-08,	1047.22,	1.925896e-10
618.603,	1.43008,	0.00759578,	3,	1064.73,	2.428674e-10,	1064.88,	2.304072e-11,	1064.96,	3.555062e-09,	1064.81,	3.815685e-12,	1064.51,	2.554619e-09,	1064.59,	3.527296e-08,	1064.66,	1.953857e-10
627.898,	1.616104,	0.0458589,	3,	1082.18,	2.395855e-10,	1082.33,	2.29504e-11,	1082.4,	3.556608e-09,	1082.25,	3.628296e-12,	1081.95,	2.558146e-09,	1082.03,	3.511474e-08,	1082.1,	1.930682e-10
636.935,	1.60406,	0.00647645,	3,	1099.62,	2.396279e-10,	1099.77,	2.333354e-11,	1099.84,	3.580969e-09,	1099.69,	3.76652e-12,	1099.39,	2.57612e-09,	1099.47,	3.637064e-08,	1099.54,	1.924879e-10
646.23,	1.41811,	-0.000146514,	3,	1117.06,	2.437583e-10,	1117.21,	2.36048e-11,	1117.28,	3.569033e-09,	1117.13,	3.913335e-12,	1116.84,	2.561352e-09,	1116.91,	3.517633e-08,	1116.99,	1.936361e-10
655.525,	1.23224,	-0.000659276,	3,	1134.5,	2.42623e-10,	1134.65,	2.329153e-11,	1134.73,	3.573521e-09,	1134.58,	3.422552e-12,	1134.28,	2.572808e-09,	1134.35,	3.557586e-08,	1134.43,	1.924664e-10
664.82,	1.046319,	-0.00170358,	3,	1151.95,	2.410888e-10,	1152.1,	2.415712e-11,	1152.17,	3.614323e-09,	1152.02,	3.646327e-12,	1151.72,	2.560835e-09,	1151.8,	3.526058e-08,	1151.87,	1.917148e-10
674.115,	0.860414,	-0.00654298,	3,	1169.39,	2.398306e-10,	1169.54,	2.347559e-11,	1169.61,	3.553277e-09,	1169.46,	3.651428e-12,	1169.16,	2.563465e-09,	1169.24,	3.532317e-08,	1169.31,	1.930143e-10
683.411,	0.6744886,	-0.0126899,	3,	1186.83,	2.388286e-10,	1186.98,	2.310579e-11,	1187.06,	3.583306e-09,	1186.91,	3.591808e-12,	1186.61,	2.571924e-09,	1186.68,	3.630517e-08,	1186.76,	1.932426e-10
692.706,	0.4886215,	-0.00160993,	3,	1204.27,	2.39861e-10,	1204.42,	2.274131e-11,	1204.5,	3.55368e-09,	1204.35,	3.427515e-12,	1204.05,	2.559348e-09,	1204.12,	3.626149e-08,	1204.2,	1.918719e-10
702.001,	0.302611,	-0.00484529,	3,	1221.72,	2.424548e-10,	1221.87,	2.400671e-11,	1221.94,	3.573564e-09,	1221.79,	3.624593e-12,	1221.49,	2.572318e-09,	1221.57,	3.521778e-08,	1221.64,	1.930031e-10
711.296,	0.1166613,	-0.0122425,	3,	1239.16,	2.381287e-10,	1239.31,	2.313841e-11,	1239.38,	3.5776e-09,	1239.23,	3.738011e-12,	1238.93,	2.553281e-09,	1239.01,	3.521979e-08,	1239.08,	1.918738e-10
720.089,	0.0802661,	0.00933948,	3,	1256.6,	2.382728e-10,	1256.75,	2.224204e-11,	1256.83,	3.589447e-09,	1256.68,	3.88916e-12,	1256.38,	2.602394e-09,	1256.45,	3.634156e-08,	1256.53,	1.930013e-10
729.384,	0.266151,	0.0047371,	3,	1274.04,	2.411115e-10,	1274.19,	2.287061e-11,	1274.27,	3.585348e-09,	1274.12,	3.730225e-12,	1273.82,	3.142054e-09,	1273.89,	3.521155e-08,	1273.97,	1.929303e-10
738.11,	0.440554,	0.000494863,	4,	1291.49,	2.382928e-10,	1291.63,	2.220594e-11,	1291.71,	3.570124e-09,	1291.56,	3.664481e-12,	1291.26,	3.312542e-09,	1291.34,	3.51912e-08,	1291.41,	1.976114e-10
747.405,	0.626552,	0.000966611,	4,	1308.93,	2.471532e-10,	1309.08,	2.307081e-11,	1309.15,	3.55371e-09,	1309,	4.340459e-12,	1308.7,	3.354457e-09,	1308.78,	3.572026e-08,	1308.85,	2.634205e-10
756.7,	0.812475,	0.00358189,	4,	1326.37,	2.398332e-10,	1326.52,	2.16612e-11,	1326.59,	3.571317e-09,	1326.44,	3.539023e-12,	1326.15,	3.383204e-09,	1326.22,	3.525417e-08,	1326.3,	1.903394e-10
765.995,	0.998391,	0.00612536,	4,	1343.81,	2.374059e-10,	1343.96,	2.205159e-11,	1344.04,	3.5695e-09,	1343.89,	3.658406e-12,	1343.59,	3.381908e-09,	1343.66,	3.512058e-08,	1343.74,	1.892821e-10
775.29,	1.18429,	0.00660447,	4,	1361.26,	2.412668e-10,	1361.4,	2.235711e-11,	1361.48,	3.545487e-09,	1361.33,	3.65077e-12,	1361.03,	3.400406e-09,	1361.11,	3.52715e-08,	1361.18,	1.905125e-10
784.585,	1.37016,	0.00727731,	4,	1378.7,	2.4025e-10,	1378.85,	2.248774e-11,	1378.92,	3.565348e-09,	1378.77,	3.561838e-12,	1378.47,	3.405678e-09,	1378.55,	3.536648e-08,	1378.62,	1.946423e-10
793.88,	1.556134,	0.0171532,	4,	1396.14,	2.395722e-10,	1396.29,	2.317442e-11,	1396.36,	3.582071e-09,	1396.21,	3.733256e-12,	1395.92,	3.416778e-09,	1395.99,	3.634156e-08,	1396.07,	1.919187e-10
803.217,	1.65802,	0.0369756,	4,	1413.59,	2.389652e-10,	1413.73,	2.178824e-11,	1413.81,	3.570488e-09,	1413.66,	3.993467e-12,	1413.36,	3.398536e-09,	1413.44,	3.513771e-08,	1413.51,	1.92053e-10
812.512,	1.47211,	5.51044e-05,	4,	1431.03,	2.391701e-10,	1431.18,	2.182314e-11,	1431.25,	3.543067e-09,	1431.1,	3.835372e-12,	1430.8,	3.41495e-09,	1430.88,	3.553179e-08,	1430.95,	1.927873e-10
821.808,	1.28621,	-0.000512139,	4,	1448.47,	2.408633e-10,	1448.62,	2.173356e-11,	1448.69,	3.5653e-09,	1448.54,	3.748061e-12,	1448.25,	3.416693e-09,	1448.32,	3.666174e-08,	1448.39,	2.174381e-10
831.103,	1.10028,	-0.00127145,	4,	1465.91,	2.374121e-10,	1466.06,	2.221358e-11,	1466.13,	3.580015e-09,	1465.99,	3.611631e-12,	1465.69,	3.418304e-09,	1465.76,	3.543007e-08,	1465.84,	1.90174e-10
840.398,	0.9144,	-0.00410996,	4,	1483.35,	2.424126e-10,	1483.5,	2.216975e-11,	1483.58,	3.599593e-09,	1483.43,	3.27174e-12,	1483.13,	3.43791e-09,	1483.2,	3.555939e-08,	1483.28,	1.924605e-10
849.693,	0.728477,	-0.0448052,	4,	1500.8,	2.408168e-10,	1500.95,	2.185843e-11,	1501.02,	3.576516e-09,	1500.87,	3.629289e-12,	1500.57,	3.410436e-09,	1500.65,	3.522093e-08,	1500.72,	1.914712e-10
858.988,	0.542562,	-0.00204248,	4,	1518.24,	2.38291e-10,	1518.39,	2.199486e-11,	1518.46,	3.559938e-09,	1518.31,	3.553188e-12,	1518.02,	2.681703e-09,	1518.09,	3.536487e-08,	1518.16,	1.91658e-10
868.283,	0.35659,	-0.00270667,	4,	1535.68,	2.385225e-10,	1535.83,	2.194171e-11,	1535.9,	3.576439e-09,	1535.76,	3.526843e-12,	1535.46,	2.624541e-09,	1535.53,	3.537748e-08,	1535.61,	1.91085e-10
877.578,	0.170646,	-0.00743108,	4,	1553.12,	2.378772e-10,	1553.27,	2.206307e-11,	1553.35,	3.584425e-09,	1553.2,	3.676271e-12,	1552.9,	2.604812e-09,	1552.97,	3.524703e-08,	1553.05,	1.9263e-10
886.372,	0.026315,	0.056443,	4,	1570.57,	2.363009e-10,	1570.72,	2.196755e-11,	1570.79,	3.507552e-09,	1570.64,	3.746542e-12,	1570.34,	2.582728e-09,	1570.42,	3.622517e-08,	1570.49,	1.914026e-10
895.667,	0.212166,	0.00567207,	4,	1588.01,	2.374885e-10,	1588.16,	2.206249e-11,	1588.23,	3.573441e-09,	1588.08,	3.882577e-12,	1587.79,	2.597723e-09,	1587.86,	3.530674e-08,	1587.93,	1.902981e-10
906.011,	0.376634,	1.89439e-06,	5,	1605.45,	2.408952e-10,	1605.6,	2.196548e-11,	1605.68,	3.554932e-09,	1605.53,	3.78234e-12,	1605.23,	2.586344e-09,	1605.3,	3.524186e-08,	1605.38,	1.911175e-10
937.011,	0.51476,	2.12326e-06,	5,	1622.89,	2.363361e-10,	1623.04,	2.280221e-11,	1623.12,	3.546991e-09,	1622.97,	3.793493e-12,	1622.67,	2.578835e-09,	1622.74,	3.514532e-08,	1622.82,	1.917344e-10
968.011,	0.622663,	2.35213e-06,	5,	1640.34,	2.390646e-10,	1640.49,	2.181962e-11,	1640.56,	3.545639e-09,	1640.41,	3.672044e-12,	1640.11,	2.572007e-09,	1640.19,	3.517614e-08,	1640.26,	1.905942e-10
999.011,	0.697321,	2.61915e-06,	5,	1657.78,	2.383224e-10,	1657.93,	2.201434e-11,	1658,	3.561368e-09,	1657.85,	3.695435e-12,	1657.56,	2.569596e-09,	1657.63,	3.525179e-08,	1657.7,	2.252496e-10
1030.01,	0.751307,	2.39028e-06,	5,	1675.22,	2.379512e-10,	1675.37,	2.149192e-11,	1675.45,	3.559174e-09,	1675.3,	3.578482e-12,	1675,	2.572169e-09,	1675.07,	3.510543e-08,	1675.15,	1.902767e-10
1061.01,	0.785927,	2.73359e-06,	5,	1692.66,	2.358629e-10,	1692.81,	2.12941e-11,	1692.89,	3.527133e-09,	1692.74,	3.835751e-12,	1692.44,	2.581964e-09,	1692.52,	3.512761e-08,	1692.59,	1.901961e-10
1092.01,	0.8077457,	2.84802e-06,	5,	1710.11,	2.519623e-10,	1710.26,	2.166084e-11,	1710.33,	3.544443e-09,	1710.18,	4.625567e-12,	1709.88,	2.58389e-09,	1709.96,	3.522968e-08,	1710.03,	3.010768e-10
1123.01,	0.82292,	2.69544e-06,	5,	1727.55,	2.384549e-10,	1727.7,	2.119512e-11,	1727.77,	3.546996e-09,	1727.625,	3.677332e-12,	1727.33,	2.56989e-09,	1727.4,	3.523418e-08,	1727.48,	1.908932e-10
1154.01,	0.834362,	1.58922e-06,	5,	1744.99,	2.369404e-10,	1745.14,	2.165535e-11,	1745.22,	3.590416e-09,	1745.07,	3.679296e-12,	1744.77,	2.575691e-09,	1744.84,	3.540093e-08,	1744.92,	1.88016e-10
1185.01,	0.844158,	2.80988e-06,	5,	1762.43,	2.370891e-10,	1762.58,	2.204911e-11,	1762.66,	3.501987e-09,	1762.51,	3.650908e-12,	1762.21,	2.573121e-09,	1762.29,	3.501112e-08,	1762.36,	1.902647e-10
1210.21,	0.739047,	-0.00249728,	6,	1779.88,	2.362992e-10,	1780.03,	2.146852e-11,	1780.1,	3.543659e-09,	1779.95,	3.624672e-12,	1779.65,	2.573717e-09,	1779.73,	3.546633e-08,	1779.8,	1.925625e-10
1217.19,	0.428442,	-0.00249724,	6,	1797.32,	2.377689e-10,	1797.47,	2.202344e-11,	1797.54,	3.542366e-09,	1797.39,	3.720657e-12,	1797.1,	2.584906e-09,	1797.17,	3.643246e-08,	1797.24,	1.899823e-10
1240.91,	0.149099,	-0.00249755,	6,	1814.76,	2.356941e-10,	1814.91,	2.221344e-11,	1814.98,	3.553763e-09,	1814.84,	3.375642e-12,	1814.54,	2.685813e-09,	1814.61,	3.526166e-08,	1814.69,	1.910338e-10
1271.91,	0.0524274,	-0.002497396,	6,	1832.2,	2.339802e-10,	1832.35,	2.148183e-11,	1832.43,	3.58422e-09,	1832.28,	3.290008e-12,	1831.98,	4.231312e-09,	1832.06,	3.513628e-08,	1832.13,	1.906401e-10
1302.91,	0.0469872,	-0.0024969,	6,	1849.65,	2.346234e-10,	1849.8,	2.152781e-11,	1849.87,	3.606074e-09,	1849.72,	3.541959e-12,	1849.42,	4.33394e-09,	1849.5,	3.519237e-08,	1849.57,	1.899526e-10
1333.91,	0.0464371,	-0.00249713,	6,	1867.09,	2.374094e-10,	1867.24,	2.133874e-11,	1867.31,	3.519574e-09,	1867.16,	3.700585e-12,	1866.87,	4.344995e-09,	1866.94,	3.528367e-08,	1867.02,	1.930869e-10
1364.91,	0.0462422,	-0.0024969,	6,	1884.53,	2.376667e-10,	1884.68,	2.179311e-11,	1884.76,	3.528239e-09,	1884.61,	3.586225e-12,	1884.31,	4.36391e-09,	1884.38,	3.533653e-08,	1884.46,	1.937983e-10
1395.91,	0.0461352,	-0.00249759,	6,	1901.97,	2.378489e-10,	1902.12,	2.192187e-11,	1902.2,	3.586153e-09,	1902.05,	3.845767e-12,	1901.75,	4.38296e-09,	1901.83,	3.502291e-08,	1901.9,	1.911498e-10
1426.91,	0.0460818,	-0.0024974,	6,	1919.42,	2.353975e-10,	1919.57,	2.208801e-11,	1919.64,	3.556521e-09,	1919.49,	3.872824e-12,	1919.19,	4.379802e-09,	1919.27,	3.51409e-08,	1919.34,	1.919018e-10
1457.91,	0.0460053,	-0.00249728,	6,	1936.86,	2.398557e-10,	1937.01,	2.14822e-11,	1937.08,	3.553066e-09,	1936.93,	3.416318e-12,	1936.64,	4.389916e-09,	1936.71,	3.492363e-08,	1936.79,	1.910362e-10
1488.91,	0.0458907,	-0.00249728,	6,	1954.3,	2.352923e-10,	1954.45,	2.135891e-11,	1954.53,	3.554651e-09,	1954.38,	3.662355e-12,	1954.08,	4.404523e-09,	1954.15,	3.514157e-08,	1954.23,	1.923682e-10
1518.01,	0.0736688,	2.39028e-06,	7,	1971.74,	2.395656e-10,	1971.89,	2.133082e-11,	1971.97,	3.549868e-09,	1971.82,	3.801695e-12,	1971.52,	4.390476e-09,	1971.6,	3.539897e-08,	1971.67,	1.90412e-10
1549.01,	0.0956972,	2.31399e-06,	7,	1989.19,	2.336061e-10,	1989.34,	2.186273e-11,	1989.41,	3.545476e-09,	1989.26,	3.627914e-12,	1988.96,	4.38345e-09,	1989.04,	3.49959e-08,	1989.11,	1.903794e-10
1580.01,	0.110119,	2.46657e-06,	7,	2006.63,	2.367924e-10,	2006.78,	2.18643e-11,	2006.85,	3.491974e-09,	2006.7,	3.700405e-12,	2006.41,	4.408185e-09,	2006.48,	3.497555e-08,	2006.56,	1.911254e-10
1611.01,	0.122539,	2.504715e-06,	7,	2024.07,	2.414801e-10,	2024.22,	2.194762e-11,	2024.3,	3.514747e-09,	2024.15,	3.704384e-12,	2023.85,	4.40179e-09,	2023.92,	3.597416e-08,	2024,	2.488323e-10
1642.01,	0.134642,	3.15319e-06,	7,	2041.52,	2.38225e-10,	2041.66,	2.178473e-11,	2041.74,	3.540864e-09,	2041.59,	3.570297e-12,	2041.29,	4.410896e-09,	2041.37,	3.528628e-08,	2041.44,	1.925802e-10
1673.01,	0.147838,	2.27584e-06,	7,	2058.96,	2.374085e-10,	2059.11,	2.182082e-11,	2059.18,	3.541718e-09,	2059.03,	3.863313e-12,	2058.73,	4.425984e-09,	2058.81,	3.523868e-08,	2058.88,	1.905463e-10
1704.01,	0.162665,	3.11504e-06,	7,	2076.4,	2.347148e-10,	2076.55,	2.167712e-11,	2076.62,	3.590321e-09,	2076.47,	3.784657e-12,	2076.18,	4.391741e-09,	2076.25,	3.6036e-08,	2076.33,	1.901022e-10
1735.01,	0.179429,	2.04697e-06,	7,	2093.84,	2.41737e-10,	2093.99,	2.091529e-11,	2094.07,	3.565602e-09,	2093.92,	3.820949e-12,	2093.62,	4.408804e-09,	2093.69,	3.531284e-08,	2093.77,	2.293048e-10
1766.01,	0.19769,	2.2377e-06,	7,	2111.29,	2.327641e-10,	2111.43,	2.125563e-11,	2111.51,	3.523915e-09,	2111.36,	4.06516e-12,	2111.06,	2.890092e-09,	2111.14,	3.516566e-08,	2111.21,	1.887405e-10
1797.01,	0.217942,	2.42842e-06,	7,	2128.73,	2.359946e-10,	2128.88,	2.151035e-11,	2128.95,	3.519258e-09,	2128.8,	3.645829e-12,	2128.51,	2.665364e-09,	2128.58,	3.498806e-08,	2128.65,	1.901737e-10
1823.31,	0.0406148,	-0.00499787,	8,	2146.17,	2.343235e-10,	2146.32,	2.204434e-11,	2146.39,	3.522043e-09,	2146.24,	3.833649e-12,	2145.95,	2.632897e-09,	2146.02,	3.520544e-08,	2146.1,	1.913233e-10
1854.31,	0.0367218,	-0.00499764,	8,	2163.61,	2.420483e-10,	2163.76,	2.150203e-11,	2163.84,	3.548254e-09,	2163.69,	4.121605e-12,	2163.39,	2.591452e-09,	2163.46,	3.491149e-08,	2163.54,	2.287077e-10
1885.31,	0.0365079,	-0.00499688,	8,	2181.06,	2.331697e-10,	2181.2,	2.156678e-11,	2181.28,	3.508462e-09,	2181.13,	3.510936e-12,	2180.83,	2.601738e-09,	2180.91,	3.493414e-08,	2180.98,	1.914731e-10
1916.31,	0.0364505,	-0.00499756,	8,	2198.5,	2.325299e-10,	2198.65,	2.135898e-11,	2198.72,	3.521863e-09,	2198.57,	3.681983e-12,	2198.28,	2.586696e-09,	2198.35,	3.485236e-08,	2198.42,	1.888681e-10
1947.31,	0.0363856,	-0.0049976,	8,	2215.94,	2.330509e-10,	2216.09,	2.168544e-11,	2216.16,	3.498112e-09,	2216.02,	3.452458e-12,	2215.72,	2.588486e-09,	2215.79,	3.50021e-08,	2215.87,	1.920488e-10
1978.31,	0.0363321,	-0.00499768,	8,	2233.38,	2.356104e-10,	2233.53,	2.198645e-11,	2233.61,	3.510651e-09,	2233.46,	3.604357e-12,	2233.16,	2.587452e-09,	2233.23,	3.493781e-08,	2233.31,	1.896146e-10
2009.31,	0.0362748,	-0.00499783,	8,	2250.83,	2.338126e-10,	2250.97,	2.140875e-11,	2251.05,	3.533997e-09,	2250.9,	3.716147e-12,	2250.6,	2.598867e-09,	2250.68,	3.50326e-08,	2250.75,	1.90819e-10
2040.31,	0.036229,	-0.00499753,	8,	2268.27,	2.340112e-10,	2268.42,	2.203156e-11,	2268.49,	3.513919e-09,	2268.34,	3.552514e-12,	2268.04,	2.586748e-09,	2268.12,	3.499349e-08,	2268.19,	1.899792e-10
2071.31,	0.0362175,	-0.00499741,	8,	2285.71,	2.351431e-10,	2285.86,	2.140067e-11,	2285.93,	3.55446e-09,	2285.79,	3.674292e-12,	2285.49,	2.576959e-09,	2285.56,	3.507131e-08,	2285.64,	1.908002e-10
2102.31,	0.0362328,	-0.00499711,	8,	2303.15,	2.310465e-10,	2303.3,	2.136244e-11,	2303.38,	3.553402e-09,	2303.23,	3.637162e-12,	2302.93,	2.588903e-09,	2303.01,	3.488728e-08,	2303.08,	1.911951e-10
2132.01,	0.0814471,	2.27584e-06,	9,	2320.6,	2.31611e-10,	2320.74,	2.169027e-11,	2320.82,	3.502645e-09,	2320.67,	3.610541e-12,	2320.37,	2.586866e-09,	2320.45,	3.496246e-08,	2320.52,	1.877647e-10
2163.01,	0.0979741,	2.73359e-06,	9,	2338.04,	2.328474e-10,	2338.19,	2.105703e-11,	2338.26,	3.498445e-09,	2338.11,	3.490838e-12,	2337.82,	2.566822e-09,	2337.89,	3.575949e-08,	2337.96,	1.875177e-10
2194.01,	0.110788,	2.73359e-06,	9,	2355.48,	2.295873e-10,	2355.63,	2.23232e-11,	2355.7,	3.482074e-09,	2355.56,	3.651458e-12,	2355.26,	2.5789e-09,	2355.33,	3.467305e-08,	2355.41,	1.880599e-10
2225.01,	0.122318,	2.69544e-06,	9,	2372.92,	2.349696e-10,	2373.07,	2.102834e-11,	2373.15,	3.544547e-09,	2373,	3.199788e-12,	2372.7,	2.571538e-09,	2372.77,	3.475054e-08,	2372.85,	1.904609e-10
2256.01,	0.133702,	2.504715e-06,	9,	2390.37,	2.353515e-10,	2390.52,	2.192904e-11,	2390.59,	3.540727e-09,	2390.44,	3.767989e-12,	2390.14,	2.576363e-09,	2390.22,	3.511085e-08,	2390.29,	1.921581e-10
2287.01,	0.145939,	2.42842e-06,	9,	2407.81,	2.335198e-10,	2407.96,	2.171333e-11,	2408.03,	3.506261e-09,	2407.88,	3.717933e-12,	2407.59,	2.694287e-09,	2407.66,	3.594144e-08,	2407.73,	1.877638e-10
2318.01,	0.15978,	2.504715e-06,	9,	2425.25,	2.348343e-10,	2425.4,	2.115644e-11,	2425.47,	3.536891e-09,	2425.33,	3.914811e-12,	2425.03,	6.102112e-09,	2425.1,	3.509708e-08,	2425.18,	1.907746e-10
2349.01,	0.174879,	2.96246e-06,	9,	2442.69,	2.428139e-10,	2442.84,	2.122926e-11,	2442.92,	3.50743e-09,	2442.77,	3.692388e-12,	2442.47,	6.222002e-09,	2442.54,	3.603596e-08,	2442.62,	2.410567e-10
2380.01,	0.191799,	2.31399e-06,	9,	2460.14,	2.310508e-10,	2460.29,	2.125957e-11,	2460.36,	3.560152e-09,	2460.21,	3.522987e-12,	2459.91,	6.230888e-09,	2459.99,	3.483362e-08,	2460.06,	1.868952e-10
2405.68,	0.144571,	-0.00999698,	10,	2477.58,	2.33856e-10,	2477.73,	2.12101e-11,	2477.8,	3.514372e-09,	2477.65,	3.352193e-12,	2477.36,	6.294249e-09,	2477.43,	3.487821e-08,	2477.51,	1.894041e-10
2431.77,	0.02803804,	-0.00999725,	10,	2495.02,	2.376703e-10,	2495.17,	2.161606e-11,	2495.24,	3.55515e-09,	2495.1,	3.734757e-12,	2494.8,	6.284759e-09,	2494.87,	3.457652e-08,	2494.95,	2.140604e-10
2462.77,	0.0276904,	-0.00999706,	10,	2512.46,	2.32825e-10,	2512.61,	2.154696e-11,	2512.69,	3.591942e-09,	2512.54,	3.76999e-12,	2512.24,	6.297617e-09,	2512.32,	3.501021e-08,	2512.39,	1.908948e-10
2493.77,	0.02765218,	-0.00999756,	10,	2529.91,	2.323062e-10,	2530.06,	2.208384e-11,	2530.13,	3.553396e-09,	2529.98,	3.659421e-12,	2529.68,	6.290733e-09,	2529.76,	3.482973e-08,	2529.83,	1.896406e-10
2524.77,	0.0275796,	-0.009997136,	10,	2547.35,	2.342907e-10,	2547.5,	2.120971e-11,	2547.57,	3.596244e-09,	2547.42,	3.968654e-12,	2547.13,	6.312839e-09,	2547.2,	3.459751e-08,	2547.28,	1.890103e-10
2555.77,	0.0275567,	-0.00999805,	10,	2564.79,	2.348513e-10,	2564.94,	2.163637e-11,	2565.02,	3.556191e-09,	2564.87,	3.607607e-12,	2564.57,	6.316431e-09,	2564.64,	3.488516e-08,	2564.72,	1.993409e-10
2586.77,	0.0275452,	-0.00999748,	10,	2582.23,	2.317246e-10,	2582.38,	2.185969e-11,	2582.46,	3.533776e-09,	2582.31,	3.98552e-12,	2582.01,	6.316522e-09,	2582.08,	3.618149e-08,	2582.16,	1.86491e-10
2617.77,	0.027572,	-0.00999683,	10,	2599.68,	2.303804e-10,	2599.83,	2.124755e-11,	2599.9,	3.547084e-09,	2599.75,	3.255494e-12,	2599.45,	6.280306e-09,	2599.53,	3.475473e-08,	2599.6,	1.865609e-10
2648.77,	0.0274841,	-0.0099971,	10,	2617.12,	2.357319e-10,	2617.27,	2.161879e-11,	2617.34,	3.544434e-09,	2617.19,	3.356618e-12,	2616.9,	6.288287e-09,	2616.97,	3.587957e-08,	2617.05,	1.884936e-10
2679.77,	0.0275834,	-0.0099971,	10,	2634.56,	2.320292e-10,	2634.71,	2.17253e-11,	2634.79,	3.523071e-09,	2634.64,	3.71168e-12,	2634.34,	6.30514e-09,	2634.41,	3.494311e-08,	2634.49,	1.901333e-10
2709.01,	0.0491686,	2.161406e-06,	11,	2652,	2.326704e-10,	2652.15,	2.11521e-11,	2652.23,	3.515955e-09,	2652.08,	3.466315e-12,	2651.78,	6.297622e-09,	2651.85,	3.48377e-08,	2651.93,	1.883744e-10
2740.01,	0.08284539,	2.504715e-06,	11,	2669.45,	2.329805e-10,	2669.6,	2.190054e-11,	2669.67,	3.549599e-09,	2669.52,	3.794952e-12,	2669.22,	6.318051e-09,	2669.3,	3.502815e-08,	2669.37,	1.869647e-10
2771.01,	0.0975195,	2.2377e-06,	11,	2686.89,	2.328739e-10,	2687.04,	2.171515e-11,	2687.11,	3.52617e-09,	2686.96,	3.536252e-12,	2686.66,	6.3223e-09,	2686.74,	3.472408e-08,	2686.81,	1.872376e-10
2802.01,	0.1093016,	3.03875e-06,	11,	2704.33,	2.305273e-10,	2704.48,	2.143996e-11,	2704.56,	3.519053e-09,	2704.41,	3.406347e-12,	2704.11,	4.896687e-09,	2704.18,	3.594141e-08,	2704.26,	1.916042e-10
2833.01,	0.12027,	2.27584e-06,	11,	2721.77,	2.344837e-10,	2721.92,	2.162832e-11,	2722,	3.5182e-09,	2721.85,	3.62243e-12,	2721.55,	2.768247e-09,	2721.62,	3.4781e-08,	2721.7,	1.881058e-10
2864.01,	0.131101,	2.54286e-06,	11,	2739.22,	2.31586e-10,	2739.37,	2.140445e-11,	2739.44,	3.51978e-09,	2739.29,	3.651019e-12,	2738.99,	2.667691e-09,	2739.07,	3.455029e-08,	2739.14,	1.897582e-10
2895.01,	0.142543,	2.61915e-06,	11,	2756.66,	2.433522e-10,	2756.81,	2.162962e-11,	2756.88,	3.485715e-09,	2756.73,	4.509894e-12,	2756.43,	2.634383e-09,	2756.51,	3.464943e-08,	2756.58,	2.724346e-10
2926.01,	0.155257,	2.19955e-06,	11,	2774.1,	2.307553e-10,	2774.25,	2.123761e-11,	2774.33,	3.490175e-09,	2774.18,	3.689905e-12,	2773.88,	2.625405e-09,	2773.95,	3.476026e-08,	2774.03,	1.854287e-10
2957.01,	0.169343,	2.46657e-06,	11,	2791.54,	2.287282e-10,	2791.69,	2.178959e-11,	2791.77,	3.520611e-09,	2791.62,	3.768679e-12,	2791.32,	2.608164e-09,	2791.39,	3.473097e-08,	2791.47,	1.863294e-10
2988.01,	0.185041,	2.84802e-06,	11,	2808.99,	2.362068e-10,	2809.14,	2.139506e-11,	2809.21,	3.480926e-09,	2809.06,	3.715542e-12,	2808.76,	2.592181e-09,	2808.84,	3.477911e-08,	2808.91,	2.219944e-10
3007.62,	0.0531762,	-0.014998,	12,	2826.43,	2.30607e-10,	2826.58,	2.096617e-11,	2826.65,	3.509049e-09,	2826.5,	3.461699e-12,	2826.21,	2.596286e-09,	2826.28,	3.59087e-08,	2826.36,	1.87116e-10
3038.14,	0.0231174,	-0.0149979,	12,	2843.87,	2.339385e-10,	2844.02,	2.118869e-11,	2844.09,	3.499392e-09,	2843.94,	3.517258e-12,	2843.65,	2.588135e-09,	2843.72,	3.458874e-08,	2843.8,	1.87506e-10
3069.14,	0.02306007,	-0.0149979,	12,	2861.32,	2.353049e-10,	2861.46,	2.094764e-11,	2861.54,	3.519481e-09,	2861.39,	3.812352e-12,	2861.09,	2.58756e-09,	2861.17,	3.456141e-08,	2861.24,	2.212381e-10
3100.14,	0.0230066,	-0.014998,	12,	2878.76,	2.325453e-10,	2878.91,	2.066025e-11,	2878.98,	3.545798e-09,	2878.83,	3.522928e-12,	2878.53,	2.595936e-09,	2878.61,	3.462889e-08,	2878.68,	1.922165e-10
3131.14,	0.0229951,	-0.0149979,	12,	2896.2,	2.299881e-10,	2896.35,	2.134075e-11,	2896.42,	3.507923e-09,	2896.27,	3.631399e-12,	2895.98,	2.580377e-09,	2896.05,	3.472733e-08,	2896.125,	1.850628e-10
3162.14,	0.0229722,	-0.0149978,	12,	2913.64,	2.310617e-10,	2913.79,	2.143706e-11,	2913.87,	3.525527e-09,	2913.72,	3.536419e-12,	2913.42,	2.578556e-09,	2913.49,	3.582858e-08,	2913.57,	1.857497e-10
3193.14,	0.0229722,	-0.0149977,	12,	2931.08,	2.299614e-10,	2931.23,	2.093395e-11,	2931.31,	3.488559e-09,	2931.16,	3.788045e-12,	2930.86,	2.586356e-09,	2930.93,	3.473531e-08,	2931.01,	1.864456e-10
3224.14,	0.0229531,	-0.0149973,	12,	2948.53,	2.314866e-10,	2948.68,	2.177802e-11,	2948.75,	3.515116e-09,	2948.6,	3.567063e-12,	2948.3,	2.580413e-09,	2948.38,	3.455569e-08,	2948.45,	1.881693e-10
3255.14,	0.0229798,	-0.0149979,	12,	2965.97,	2.307946e-10,	2966.12,	2.133465e-11,	2966.19,	3.475306e-09,	2966.04,	3.480385e-12,	2965.75,	2.575522e-09,	2965.82,	3.453698e-08,	2965.89,	1.873195e-10
3286.14,	0.022892,	-0.0149979,	12,	2983.41,	2.339892e-10,	2983.56,	2.162007e-11,	2983.64,	3.526708e-09,	2983.49,	3.484528e-12,	2983.19,	2.599742e-09,	2983.26,	3.591598e-08,	2983.34,	1.96817e-10
3316.01,	0.0599001,	2.42842e-06,	13,	3000.85,	2.310971e-10,	3001,	2.126633e-11,	3001.08,	3.487876e-09,	3000.93,	3.627629e-12,	3000.63,	2.585415e-09,	3000.7,	3.454898e-08,	3000.78,	1.876657e-10
3347.01,	0.0831969,	2.42842e-06,	13,	3018.3,	2.319709e-10,	3018.45,	2.090242e-11,	3018.52,	3.540712e-09,	3018.37,	3.671277e-12,	3018.07,	7.807627e-09,	3018.15,	3.478192e-08,	3018.22,	1.903686e-10
3378.01,	0.0963161,	1.97068e-06,	13,	3035.74,	2.336491e-10,	3035.89,	2.13084e-11,	3035.96,	3.563386e-09,	3035.81,	3.576593e-12,	3035.52,	8.066209e-09,	3035.59,	3.478797e-08,	3035.66,	1.903403e-10
3409.01,	0.107269,	2.46657e-06,	13,	3053.18,	2.316653e-10,	3053.33,	2.173542e-11,	3053.41,	3.542557e-09,	3053.26,	3.81002e-12,	3052.96,	8.147408e-09,	3053.03,	3.471511e-08,	3053.11,	1.889825e-10
3440.01,	0.117431,	3.15319e-06,	13,	3070.625,	2.306974e-10,	3070.77,	2.138735e-11,	3070.85,	3.562673e-09,	3070.7,	3.520085e-12,	3070.4,	8.211709e-09,	3070.48,	3.498579e-08,	3070.55,	1.904496e-10
3471.01,	0.127506,	2.88617e-06,	13,	3088.07,	2.343269e-10,	3088.22,	2.145246e-11,	3088.29,	3.555476e-09,	3088.14,	3.449951e-12,	3087.84,	8.186261e-09,	3087.92,	3.480694e-08,	3087.99,	1.881131e-10
3502.01,	0.137935,	3.03875e-06,	13,	3105.51,	2.3099e-10,	3105.66,	2.141216e-11,	3105.73,	3.517695e-09,	3105.59,	3.593128e-12,	3105.29,	8.204053e-09,	3105.36,	3.460231e-08,	3105.44,	1.899397e-10
3533.01,	0.14937,	3.00061e-06,	13,	3122.95,	2.313726e-10,	3123.1,	2.106405e-11,	3123.18,	3.503729e-09,	3123.03,	3.449791e-12,	3122.73,	8.24547e-09,	3122.8,	3.452685e-08,	3122.88,	1.909917e-10
3564.01,	0.162061,	2.08512e-06,	13,	3140.39,	2.325742e-10,	3140.54,	2.140864e-11,	3140.62,	3.54059e-09,	3140.47,	3.801115e-12,	3140.17,	8.244057e-09,	3140.24,	3.467347e-08,	3140.32,	1.91085e-10
3595.01,	0.17599,	2.69544e-06,	13,	3157.84,	2.326546e-10,	3157.99,	2.198283e-11,	3158.06,	3.597775e-09,	3157.91,	3.442388e-12,	3157.62,	8.253447e-09,	3157.69,	3.621421e-08,	3157.76,	1.889779e-10
3613.99,	0.0209436,	-0.0199976,	14,	3175.28,	2.354918e-10,	3175.43,	2.13309e-11,	3175.5,	3.501024e-09,	3175.35,	3.748956e-12,	3175.06,	8.221206e-09,	3175.13,	3.485954e-08,	3175.2,	2.157157e-10
3644.99,	0.0199082,	-0.0199972,	14,	3192.72,	2.322668e-10,	3192.87,	2.123835e-11,	3192.94,	3.595492e-09,	3192.8,	3.345028e-12,	3192.5,	8.2237e-09,	3192.57,	3.477984e-08,	3192.65,	1.914021e-10
3675.99,	0.0198624,	-0.0199972,	14,	3210.17,	2.313919e-10,	3210.32,	2.148463e-11,	3210.39,	3.561252e-09,	3210.24,	3.63066e-12,	3209.94,	8.252506e-09,	3210.02,	3.486257e-08,	3210.09,	1.837246e-10
3706.99,	0.0198471,	-0.0199967,	14,	3227.61,	2.295854e-10,	3227.76,	2.102499e-11,	3227.83,	3.524186e-09,	3227.68,	3.241408e-12,	3227.38,	8.259246e-09,	3227.46,	3.466538e-08,	3227.53,	1.821323e-10
3737.99,	0.0198662,	-0.0199972,	14,	3245.05,	2.251969e-10,	3245.2,	2.084787e-11,	3245.27,	3.523719e-09,	3245.125,	3.37921e-12,	3244.83,	8.235929e-09,	3244.9,	3.457176e-08,	3244.98,	1.789425e-10
3768.99,	0.0198433,	-0.0199973,	14,	3262.49,	2.30837e-10,	3262.64,	2.029979e-11,	3262.72,	3.5731e-09,	3262.57,	3.127405e-12,	3262.27,	8.235645e-09,	3262.35,	3.449782e-08,	3262.42,	1.803789e-10
3799.99,	0.0197669,	-0.0199972,	14,	3279.93,	2.298721e-10,	3280.08,	2.021177e-11,	3280.16,	3.508116e-09,	3280.01,	3.440916e-12,	3279.71,	8.259048e-09,	3279.79,	3.474862e-08,	3279.86,	1.888894e-10
3830.99,	0.0197669,	-0.01999712,	14,	3297.38,	2.287411e-10,	3297.53,	2.035789e-11,	3297.6,	3.513103e-09,	3297.45,	3.499329e-12,	3297.15,	8.263019e-09,	3297.23,	3.571579e-08,	3297.3,	1.820762e-10
3861.99,	0.01974397,	-0.01999693,	14,	3314.82,	2.280736e-10,	3314.97,	2.095453e-11,	3315.04,	3.492977e-09,	3314.89,	3.120615e-12,	3314.6,	3.024815e-09,	3314.67,	3.466259e-08,	3314.74,	1.814155e-10
3892.99,	0.0197898,	-0.0199979,	14,	3332.26,	2.261826e-10,	3332.41,	2.104829e-11,	3332.49,	3.473312e-09,	3332.34,	3.490862e-12,	3332.04,	2.720737e-09,	3332.11,	3.445979e-08,	3332.19,	1.770609e-10
3922.01,	0.0650271,	2.27584e-06,	15,	3349.7,	2.256126e-10,	3349.85,	2.027164e-11,	3349.93,	3.50756e-09,	3349.78,	3.462644e-12,	3349.48,	2.668262e-09,	3349.56,	3.448273e-08,	3349.63,	1.80466e-10
3953.01,	0.0834605,	2.2377e-06,	15,	3367.15,	2.300756e-10,	3367.3,	2.092091e-11,	3367.37,	3.476125e-09,	3367.22,	3.393302e-12,	3366.92,	2.640605e-09,	3367,	3.445466e-08,	3367.07,	2.221056e-10
3984.01,	0.0956361,	2.54286e-06,	15,	3384.59,	2.291877e-10,	3384.74,	2.040441e-11,	3384.81,	3.475207e-09,	3384.66,	3.302394e-12,	3384.37,	2.615629e-09,	3384.44,	3.467953e-08,	3384.52,	1.799535e-10
4015.01,	0.106108,	2.77173e-06,	15,	3402.03,	2.249149e-10,	3402.18,	2.059142e-11,	3402.26,	3.534517e-09,	3402.11,	3.509035e-12,	3401.81,	2.612209e-09,	3401.88,	3.469826e-08,	3401.96,	1.775648e-10
4046.01,	0.116022,	2.54286e-06,	15,	3419.48,	2.262922e-10,	3419.625,	2.027623e-11,	3419.7,	3.47543e-09,	3419.55,	3.303733e-12,	3419.25,	2.595543e-09,	3419.33,	3.434915e-08,	3419.4,	1.787205e-10
4077.01,	0.125848,	2.2377e-06,	15,	3436.92,	2.272126e-10,	3437.07,	2.057058e-11,	3437.14,	3.489333e-09,	3436.99,	3.417244e-12,	3436.69,	2.604845e-09,	3436.77,	3.482485e-08,	3436.84,	1.804187e-10
4108.01,	0.135914,	2.504715e-06,	15,	3454.36,	2.247562e-10,	3454.51,	2.122213e-11,	3454.59,	3.459027e-09,	3454.44,	3.096068e-12,	3454.14,	2.607353e-09,	3454.21,	3.447274e-08,	3454.29,	1.791936e-10
4139.01,	0.146856,	2.19955e-06,	15,	3471.8,	2.385651e-10,	3471.95,	2.074461e-11,	3472.03,	3.488754e-09,	3471.88,	4.096063e-12,	3471.58,	2.605658e-09,	3471.65,	3.442837e-08,	3471.73,	2.835895e-10
4170.01,	0.159051,	2.88617e-06,	15,	3489.25,	2.233722e-10,	3489.39,	2.071726e-11,	3489.47,	3.483515e-09,	3489.32,	3.207503e-12,	3489.02,	2.601433e-09,	3489.1,	3.465523e-08,	3489.17,	1.771833e-10
4201.01,	0.17256,	2.27584e-06,	15,	3506.69,	2.295667e-10,	3506.84,	2.018905e-11,	3506.91,	3.488787e-09,	3506.76,	3.268791e-12,	3506.46,	2.608417e-09,	3506.54,	3.489472e-08,	3506.61,	1.793263e-10
,	,	,	,	3524.13,	2.265944e-10,	3524.28,	2.066077e-11,	3524.36,	3.507597e-09,	3524.21,	3.266542e-12,	3523.91,	2.608725e-09,	3523.98,	3.467762e-08,	3524.06,	1.798462e-10
,	,	,	,	3541.57,	2.254659e-10,	3541.72,	2.051894e-11,	3541.8,	3.463231e-09,	3541.65,	3.366323e-12,	3541.35,	2.619234e-09,	3541.42,	3.466512e-08,	3541.5,	1.803057e-10
,	,	,	,	3559.02,	2.252194e-10,	3559.16,	2.075813e-11,	3559.24,	3.480394e-09,	3559.09,	3.171189e-12,	3558.79,	2.596032e-09,	3558.87,	3.452941e-08,	3558.94,	1.782154e-10
,	,	,	,	3576.46,	2.253977e-10,	3576.61,	2.0875e-11,	3576.68,	3.46324e-09,	3576.53,	3.23705e-12,	3576.23,	2.595747e-09,	3576.31,	3.427702e-08,	3576.38,	1.79568e-10
,	,	,	,	3593.9,	2.250472e-10,	3594.05,	2.027255e-11,	3594.13,	3.473195e-09,	3593.98,	3.375997e-12,	3593.68,	2.593544e-09,	3593.75,	3.441644e-08,	3593.83,	1.769617e-10
,	,	,	,	3611.34,	2.258659e-10,	3611.49,	2.043046e-11,	3611.57,	3.466475e-09,	3611.42,	3.326155e-12,	3611.12,	8.696701e-09,	3611.19,	3.458928e-08,	3611.27,	1.801937e-10
,	,	,	,	3628.79,	2.347164e-10,	3628.93,	2.073079e-11,	3629.01,	3.48918e-09,	3628.86,	3.689289e-12,	3628.56,	9.889542e-09,	3628.64,	3.480121e-08,	3628.71,	2.014709e-10
,	,	,	,	3646.23,	2.225745e-10,	3646.38,	1.992835e-11,	3646.45,	3.519603e-09,	3646.3,	3.502789e-12,	3646.01,	9.988583e-09,	3646.08,	3.44422e-08,	3646.15,	1.813401e-10
,	,	,	,	3663.67,	2.246619e-10,	3663.82,	2.039351e-11,	3663.89,	3.530188e-09,	3663.75,	3.562197e-12,	3663.45,	9.991534e-09,	3663.52,	3.570125e-08,	3663.6,	1.78494e-10
,	,	,	,	3681.11,	2.299331e-10,	3681.26,	2.064688e-11,	3681.34,	3.521805e-09,	3681.19,	3.668304e-12,	3680.89,	1.007633e-08,	3680.96,	3.455844e-08,	3681.04,	1.808609e-10
,	,	,	,	3698.56,	2.301787e-10,	3698.7,	2.086086e-11,	3698.78,	3.54061e-09,	3698.63,	3.359596e-12,	3698.33,	1.005557e-08,	3698.41,	3.446434e-08,	3698.48,	1.764058e-10
,	,	,	,	3716,	2.290826e-10,	3716.15,	2.059982e-11,	3716.22,	3.546436e-09,	3716.07,	3.236787e-12,	3715.78,	1.008815e-08,	3715.85,	3.469383e-08,	3715.92,	1.807349e-10
,	,	,	,	3733.44,	2.284459e-10,	3733.59,	2.030221e-11,	3733.66,	3.526589e-09,	3733.52,	3.326087e-12,	3733.22,	1.011637e-08,	3733.29,	3.460372e-08,	3733.37,	1.79764e-10
,	,	,	,	3750.88,	2.258081e-10,	3751.03,	2.113415e-11,	3751.11,	3.483466e-09,	3750.96,	3.579569e-12,	3750.66,	1.00583e-08,	3750.73,	3.461988e-08,	3750.81,	1.828514e-10
,	,	,	,	3768.33,	2.273859e-10,	3768.48,	2.06943e-11,	3768.55,	3.48529e-09,	3768.4,	3.51953e-12,	3768.1,	1.012963e-08,	3768.18,	3.455378e-08,	3768.25,	1.786119e-10
,	,	,	,	3785.77,	2.285348e-10,	3785.92,	2.079703e-11,	3785.99,	3.527744e-09,	3785.84,	3.408737e-12,	3785.55,	1.013934e-08,	3785.62,	3.58177e-08,	3785.69,	1.821823e-10
,	,	,	,	3803.21,	2.278338e-10,	3803.36,	2.136271e-11,	3803.43,	3.512833e-09,	3803.29,	3.569191e-12,	3802.99,	1.012894e-08,	3803.06,	3.467222e-08,	3803.14,	1.822773e-10
,	,	,	,	3820.65,	2.272923e-10,	3820.8,	2.040101e-11,	3820.88,	3.521644e-09,	3820.73,	3.431571e-12,	3820.43,	1.011784e-08,	3820.51,	3.455951e-08,	3820.58,	1.809544e-10
,	,	,	,	3838.1,	2.319264e-10,	3838.25,	2.107555e-11,	3838.32,	3.517133e-09,	3838.17,	3.394157e-12,	3837.87,	1.011094e-08,	3837.95,	3.451445e-08,	3838.02,	1.806597e-10
,	,	,	,	3855.54,	2.282929e-10,	3855.69,	2.122072e-11,	3855.76,	3.577151e-09,	3855.61,	3.570396e-12,	3855.32,	1.016546e-08,	3855.39,	3.443895e-08,	3855.46,	1.817685e-10
,	,	,	,	3872.98,	2.30011e-10,	3873.13,	2.054662e-11,	3873.2,	3.536563e-09,	3873.06,	3.61499e-12,	3872.76,	1.017142e-08,	3872.83,	3.442315e-08,	3872.91,	1.828561e-10
,	,	,	,	3890.42,	2.269603e-10,	3890.57,	2.090877e-11,	3890.65,	3.586066e-09,	3890.5,	3.535001e-12,	3890.2,	1.013645e-08,	3890.28,	3.463925e-08,	3890.35,	1.814007e-10
,	,	,	,	3907.87,	2.278403e-10,	3908.02,	2.138188e-11,	3908.09,	3.567079e-09,	3907.94,	3.392699e-12,	3907.64,	4.22636e-09,	3907.72,	3.567218e-08,	3907.79,	1.814092e-10
,	,	,	,	3925.31,	2.241403e-10,	3925.46,	2.097699e-11,	3925.53,	3.4979e-09,	3925.38,	3.540985e-12,	3925.09,	2.854332e-09,	3925.16,	3.431265e-08,	3925.23,	1.845632e-10
,	,	,	,	3942.75,	2.267495e-10,	3942.9,	2.084521e-11,	3942.97,	3.507975e-09,	3942.83,	3.468602e-12,	3942.53,	2.714457e-09,	3942.6,	3.45953e-08,	3942.68,	1.832612e-10
,	,	,	,	3960.19,	2.273693e-10,	3960.34,	2.129636e-11,	3960.42,	3.486723e-09,	3960.27,	3.067761e-12,	3959.97,	2.669932e-09,	3960.05,	3.444065e-08,	3960.12,	1.829671e-10
,	,	,	,	3977.64,	2.263589e-10,	3977.79,	2.070536e-11,	3977.86,	3.535722e-09,	3977.71,	3.256678e-12,	3977.41,	2.652689e-09,	3977.49,	3.466026e-08,	3977.56,	1.800579e-10
,	,	,	,	3995.08,	2.259327e-10,	3995.23,	2.053157e-11,	3995.3,	3.529096e-09,	3995.15,	3.421029e-12,	3994.86,	2.648677e-09,	3994.93,	3.44754e-08,	3995.01,	1.81306e-10
,	,	,	,	4012.52,	2.250086e-10,	4012.67,	2.11951e-11,	4012.74,	3.512675e-09,	4012.6,	3.655747e-12,	4012.3,	2.623031e-09,	4012.37,	3.476228e-08,	4012.45,	1.827332e-10
,	,	,	,	4029.96,	2.245483e-10,	4030.11,	2.091985e-11,	4030.19,	3.443673e-09,	4030.04,	3.228788e-12,	4029.74,	2.611091e-09,	4029.82,	3.438941e-08,	4029.89,	1.82112e-10
,	,	,	,	4047.41,	2.269622e-10,	4047.56,	2.077047e-11,	4047.63,	3.477551e-09,	4047.48,	3.114886e-12,	4047.18,	2.611699e-09,	4047.26,	3.439094e-08,	4047.33,	1.811317e-10
,	,	,	,	4064.85,	2.299402e-10,	4065,	2.105099e-11,	4065.07,	3.456141e-09,	4064.92,	3.457027e-12,	4064.625,	2.614684e-09,	4064.7,	3.436222e-08,	4064.77,	1.833847e-10
,	,	,	,	4082.29,	2.266989e-10,	4082.44,	2.038718e-11,	4082.52,	3.489289e-09,	4082.37,	3.471807e-12,	4082.07,	2.61275e-09,	4082.14,	3.415339e-08,	4082.22,	1.819093e-10
,	,	,	,	4099.73,	2.232056e-10,	4099.88,	2.119446e-11,	4099.96,	3.453326e-09,	4099.81,	3.347453e-12,	4099.51,	2.598236e-09,	4099.59,	3.435689e-08,	4099.66,	1.815483e-10
,	,	,	,	4117.18,	2.272721e-10,	4117.33,	2.083204e-11,	4117.4,	3.467412e-09,	4117.25,	3.336902e-12,	4116.95,	2.617056e-09,	4117.03,	3.448148e-08,	4117.1,	1.828836e-10
,	,	,	,	4134.62,	2.262527e-10,	4134.77,	1.98103e-11,	4134.84,	3.466188e-09,	4134.69,	3.388454e-12,	4134.4,	2.620152e-09,	4134.47,	3.460276e-08,	4134.55,	1.823383e-10
,	,	,	,	4152.06,	2.254401e-10,	4152.21,	2.052837e-11,	4152.29,	3.484217e-09,	4152.14,	3.271513e-12,	4151.84,	2.607037e-09,	4151.91,	3.441892e-08,	4151.99,	1.801714e-10
,	,	,	,	4169.5,	2.265677e-10,	4169.65,	2.00615e-11,	4169.73,	3.450737e-09,	4169.58,	3.460413e-12,	4169.28,	2.604846e-09,	4169.36,	3.431126e-08,	4169.43,	1.797054e-10
,	,	,	,	4186.95,	2.257571e-10,	4187.1,	2.074767e-11,	4187.17,	3.491416e-09,	4187.02,	3.668189e-12,	4186.72,	2.579031e-09,	4186.8,	3.440369e-08,	4186.87,	1.812702e-10
,	,	,	,	4204.39,	2.235106e-10,	4204.54,	2.073367e-11,	4204.61,	3.442307e-09,	4204.46,	3.379257e-12,	4204.17,	2.604541e-09,	4204.24,	3.419046e-08,	4204.32,	1.841692e-10
,	,	,	,	4221.83,	2.236233e-10,	4221.98,	2.092295e-11,	4222.06,	3.459356e-09,	4221.91,	3.235237e-12,	4221.61,	2.595697e-09,	4221.68,	3.42494e-08,	4221.76,	1.837918e-10
,	,	,	,	4239.27,	2.225048e-10,	4239.42,	2.022618e-11,	4239.5,	3.480753e-09,	4239.35,	3.491057e-12,	4239.05,	2.582737e-09,	4239.125,	3.433187e-08,	4239.2,	1.847839e-10
,	,	,	,	4256.72,	2.262224e-10,	4256.87,	2.023458e-11,	4256.94,	3.44394e-09,	4256.79,	3.407003e-12,	4256.49,	2.598508e-09,	4256.57,	3.430721e-08,	4256.64,	1.824365e-10
,	,	,	,	4274.16,	2.250389e-10,	4274.31,	2.134077e-11,	4274.38,	3.465225e-09,	4274.23,	3.445217e-12,	4273.94,	2.597299e-09,	4274.01,	3.442983e-08,	4274.09,	1.818484e-10
,	,	,	,	4291.6,	2.234541e-10,	4291.75,	2.067405e-11,	4291.83,	3.47521e-09,	4291.68,	3.250291e-12,	4291.38,	2.599145e-09,	4291.45,	3.453994e-08,	4291.53,	1.812828e-10
,	,	,	,	4309.05,	2.257315e-10,	4309.19,	2.041808e-11,	4309.27,	3.470237e-09,	4309.12,	3.344806e-12,	4308.82,	2.59164e-09,	4308.9,	3.427303e-08,	4308.97,	1.800671e-10
,	,	,	,	4326.49,	2.280342e-10,	4326.63,	2.080959e-11,	4326.71,	3.507212e-09,	4326.56,	3.543532e-12,	4326.26,	2.610562e-09,	4326.34,	3.450766e-08,	4326.41,	1.832849e-10
,	,	,	,	4343.93,	2.267906e-10,	4344.08,	2.044549e-11,	4344.15,	3.430231e-09,	4344,	3.578775e-12,	4343.71,	2.604876e-09,	4343.78,	3.441285e-08,	4343.86,	1.806564e-10
,	,	,	,	4361.37,	2.284637e-10,	4361.52,	2.07249e-11,	4361.6,	3.442576e-09,	4361.45,	3.392974e-12,	4361.15,	2.60556e-09,	4361.22,	3.425288e-08,	4361.3,	1.919784e-10
,	,	,	,	4378.82,	2.255838e-10,	4378.96,	2.082619e-11,	4379.04,	3.466464e-09,	4378.89,	3.239905e-12,	4378.59,	2.6114e-09,	4378.67,	3.464859e-08,	4378.74,	1.849e-10
,	,	,	,	4396.26,	2.261629e-10,	4396.41,	2.038349e-11,	4396.48,	3.480197e-09,	4396.33,	3.444344e-12,	4396.03,	2.616257e-09,	4396.11,	3.42936e-08,	4396.18,	1.830694e-10
,	,	,	,	4413.7,	2.25776e-10,	4413.85,	2.067488e-11,	4413.92,	3.506912e-09,	4413.78,	3.521231e-12,	4413.48,	2.602415e-09,	4413.55,	3.570861e-08,	4413.63,	1.833299e-10
,	,	,	,	4431.14,	2.296531e-10,	4431.29,	2.057499e-11,	4431.37,	3.476508e-09,	4431.22,	3.340602e-12,	4430.92,	2.596601e-09,	4430.99,	3.429514e-08,	4431.07,	1.935144e-10
,	,	,	,	4448.59,	2.268971e-10,	4448.73,	2.109575e-11,	4448.81,	3.457537e-09,	4448.66,	3.777625e-12,	4448.36,	2.590355e-09,	4448.44,	3.472024e-08,	4448.51,	1.862861e-10
,	,	,	,	4466.03,	3.318871e-09,	4466.18,	7.585006e-11,	4466.25,	3.594429e-09,	4466.1,	1.761288e-10,	4465.81,	2.467446e-09,	4465.88,	2.913726e-08,	4465.95,	8.791059e-09
,	,	,	,	4483.47,	7.728136e-10,	4483.62,	5.653111e-11,	4483.69,	3.512562e-09,	4483.54,	3.701246e-11,	4483.25,	2.473145e-09,	4483.32,	3.366998e-08,	4483.39,	1.729777e-09
,	,	,	,	4500.91,	3.132238e-10,	4501.06,	4.066935e-11,	4501.14,	3.404886e-09,	4500.99,	7.744961e-12,	4500.69,	2.488265e-09,	4500.76,	3.398224e-08,	4500.84,	4.054664e-10
,	,	,	,	4518.36,	2.698424e-10,	4518.5,	3.209213e-11,	4518.58,	3.450119e-09,	4518.43,	5.38727e-12,	4518.13,	2.521139e-09,	4518.21,	3.400924e-08,	4518.28,	2.831823e-10
,	,	,	,	4535.8,	2.540595e-10,	4535.95,	2.751179e-11,	4536.02,	3.504752e-09,	4535.87,	4.088895e-12,	4535.58,	2.56204e-09,	4535.65,	3.429838e-08,	4535.72,	2.488924e-10
,	,	,	,	4553.24,	2.482712e-10,	4553.39,	2.544294e-11,	4553.46,	3.475138e-09,	4553.32,	4.47457e-12,	4553.02,	2.553922e-09,	4553.09,	3.427168e-08,	4553.17,	2.288262e-10
,	,	,	,	4570.68,	2.452969e-10,	4570.83,	2.397111e-11,	4570.91,	3.496194e-09,	4570.76,	4.019438e-12,	4570.46,	2.565805e-09,	4570.53,	3.442429e-08,	4570.61,	2.190812e-10
,	,	,	,	4588.125,	2.431126e-10,	4588.27,	2.28965e-11,	4588.35,	3.485966e-09,	4588.2,	4.344168e-12,	4587.9,	2.563794e-09,	4587.98,	3.439806e-08,	4588.05,	2.11189e-10
,	,	,	,	4605.57,	2.463428e-10,	4605.72,	2.316281e-11,	4605.79,	3.484958e-09,	4605.64,	4.216025e-12,	4605.35,	2.57101e-09,	4605.42,	3.450484e-08,	4605.49,	2.248732e-10
,	,	,	,	4612.88,	2.394808e-10,	4613.03,	2.281312e-11,	4613.11,	3.483704e-09,	4612.96,	4.002327e-12,	4612.66,	2.576226e-09,	4612.73,	3.445772e-08,	4612.81,	2.042322e-10