File: Quantification/development/HER_repeatability_single_day/HERonPt_RnD1_2.csv
ixdat version = 0.2.3
name = 2022-04-26 13_53_02 HER_repetition_2 AND 2022-04-26 13_53_02 HER_repetition_2_01_01_CVA_DUSB0_C01.mpt AND 2022-04-26 13_53_02 HER_repetition_2_01_02_CP_DUSB0_C01.mpt
technique = EC-MS
tstamp = 1650973982.0
backend_name = BackendBase(none, address=none)
id = 35
timecol 'time/s' for: 'Ewe/V' and 'raw_current' and 'selector'
timecol 'C0M2 time [s]' for: 'M2'
timecol 'C3M32 time [s]' for: 'M32'
timecol 'C4M40 time [s]' for: 'M40'
timecol 'C5M44 time [s]' for: 'M44'
timecol 'C2M28 time [s]' for: 'M28'
timecol 'C6M18 time [s]' for: 'M18'
timecol 'C1M4 time [s]' for: 'M4'
aliases = {"M2": ["M2 [A]"], "M4": ["M4 [A]"], "M28": ["M28 [A]"], "M32": ["M32 [A]"], "M40": ["M40 [A]"], "M44": ["M44 [A]"], "M18": ["M18 [A]"], "t": ["time/s"], "raw_potential": ["Ewe/V"], "raw_current": ["I/mA", "<I>/mA"], "cycle": ["cycle number"]}
N_header_lines = 18

time/s,	Ewe/V,	raw_current,	selector,	C0M2 time [s],	M2,	C3M32 time [s],	M32,	C4M40 time [s],	M40,	C5M44 time [s],	M44,	C2M28 time [s],	M28,	C6M18 time [s],	M18,	C1M4 time [s],	M4
55.0,	0.742108,	-3.4102e-05,	0,	0.481083,	2.607795e-09,	0.70517,	2.796816e-10,	0.779199,	4.591517e-12,	0.854228,	2.706022e-11,	0.630141,	2.399671e-10,	0.928257,	3.854992e-09,	0.556112,	4.02997e-08
71.1692,	0.865228,	0.00513379,	0,	17.9226,	2.506397e-09,	18.1456,	2.731619e-10,	18.2206,	4.478003e-12,	18.2946,	2.621202e-11,	18.0716,	2.337912e-10,	18.3695,	3.804774e-09,	17.9966,	3.759303e-08
80.4643,	1.051131,	0.00658593,	0,	35.3653,	2.511617e-09,	35.5893,	2.683261e-10,	35.6633,	4.323855e-12,	35.7383,	2.680659e-11,	35.5143,	2.312337e-10,	35.8123,	3.769432e-09,	35.4403,	3.777482e-08
89.7594,	1.23705,	0.00841723,	0,	52.8074,	2.503542e-09,	53.0314,	2.761696e-10,	53.1054,	5.06381e-12,	53.1804,	2.490038e-11,	52.9564,	2.823541e-10,	53.2544,	3.783413e-09,	52.8824,	3.846978e-08
99.0546,	1.4229,	0.0103658,	0,	70.2513,	2.513463e-09,	70.4743,	2.692954e-10,	70.5493,	4.642206e-12,	70.6233,	2.635826e-11,	70.4003,	2.325574e-10,	70.6983,	3.763001e-09,	70.3253,	3.824425e-08
108.35,	1.60889,	0.0364264,	0,	87.6941,	2.518923e-09,	87.9171,	2.759212e-10,	87.9921,	4.27793e-12,	88.0661,	3.777579e-11,	87.8431,	2.342941e-10,	88.1411,	3.774153e-09,	87.7682,	3.79804e-08
116.997,	1.61905,	0.00981003,	0,	105.135,	2.506286e-09,	105.359,	3.693111e-10,	105.432,	4.407159e-12,	105.507,	5.677448e-11,	105.283,	2.378215e-10,	105.582,	3.73598e-09,	105.21,	3.725221e-08
126.292,	1.4331,	-1.77341e-06,	0,	122.578,	2.375202e-09,	122.801,	8.446694e-10,	122.876,	4.940028e-12,	122.95,	5.69597e-11,	122.727,	2.400656e-10,	123.025,	3.762241e-09,	122.652,	3.791682e-08
135.587,	1.24723,	-0.000539758,	0,	140.022,	2.469799e-09,	140.244,	3.155946e-10,	140.319,	4.224197e-12,	140.394,	4.135365e-11,	140.171,	2.381381e-10,	140.468,	3.832977e-09,	140.095,	3.79895e-08
144.882,	1.06128,	-0.00147678,	0,	157.464,	2.494301e-09,	157.688,	2.857246e-10,	157.762,	4.494323e-12,	157.837,	3.570103e-11,	157.613,	2.334535e-10,	157.911,	3.734028e-09,	157.539,	3.747746e-08
154.177,	0.875357,	-0.00544099,	0,	174.906,	2.502198e-09,	175.13,	2.728269e-10,	175.204,	4.546807e-12,	175.279,	3.476149e-11,	175.055,	2.33073e-10,	175.353,	3.756816e-09,	174.981,	3.754644e-08
163.473,	0.689486,	-0.0219851,	0,	192.349,	2.509111e-09,	192.572,	2.709725e-10,	192.647,	4.27974e-12,	192.721,	3.137564e-11,	192.498,	2.306832e-10,	192.796,	3.723259e-09,	192.423,	3.801868e-08
172.768,	0.503544,	-0.00145062,	0,	209.791,	2.538359e-09,	210.015,	2.712802e-10,	210.089,	4.60637e-12,	210.164,	2.794827e-11,	209.94,	2.289288e-10,	210.238,	3.728946e-09,	209.866,	3.810964e-08
182.063,	0.317599,	-0.00373095,	0,	227.234,	2.514636e-09,	227.458,	2.703448e-10,	227.533,	4.425401e-12,	227.608,	2.757081e-11,	227.384,	2.274315e-10,	227.681,	3.736236e-09,	227.309,	3.733341e-08
191.358,	0.131656,	-0.0106806,	0,	244.677,	2.509976e-09,	244.9,	2.694263e-10,	244.975,	4.289554e-12,	245.049,	3.390001e-11,	244.826,	2.32177e-10,	245.124,	3.794583e-09,	244.751,	3.735405e-08
200.001,	0.0622599,	0.0102067,	0,	262.119,	2.512134e-09,	262.342,	2.724791e-10,	262.417,	4.145192e-12,	262.491,	3.946878e-11,	262.268,	2.299276e-10,	262.566,	3.730258e-09,	262.193,	3.797138e-08
209.296,	0.2481389,	0.00512065,	0,	279.561,	2.383768e-09,	279.785,	1.540066e-09,	279.859,	4.515138e-12,	279.934,	4.80509e-11,	279.71,	2.332319e-10,	280.008,	3.725026e-09,	279.636,	3.625579e-08
218.591,	0.433993,	0.000554868,	0,	297.003,	2.40557e-09,	297.227,	5.039173e-10,	297.302,	4.457748e-12,	297.375,	4.069485e-11,	297.152,	2.318323e-10,	297.451,	3.811852e-09,	297.078,	3.724874e-08
227.887,	0.619906,	0.000902386,	0,	314.446,	2.469053e-09,	314.669,	3.130801e-10,	314.744,	4.989544e-12,	314.818,	3.349181e-11,	314.595,	2.826264e-10,	314.893,	3.772692e-09,	314.52,	3.805503e-08
236.867,	0.799554,	0.00261586,	1,	331.889,	2.484797e-09,	332.112,	2.758576e-10,	332.187,	4.442319e-12,	332.261,	3.513603e-11,	332.038,	2.306109e-10,	332.336,	3.740198e-09,	331.964,	3.716351e-08
246.162,	0.985499,	0.00624187,	1,	349.332,	2.502222e-09,	349.556,	2.734585e-10,	349.63,	4.220018e-12,	349.705,	3.0677e-11,	349.481,	2.293383e-10,	349.779,	3.795344e-09,	349.407,	3.717748e-08
255.457,	1.17135,	0.00681568,	1,	366.774,	7.457732e-09,	366.997,	2.749943e-10,	367.072,	4.573037e-12,	367.146,	2.821259e-11,	366.923,	2.283342e-10,	367.221,	3.741975e-09,	366.848,	3.72897e-08
264.752,	1.35726,	0.00811833,	1,	384.215,	2.511737e-09,	384.439,	2.707457e-10,	384.513,	4.403727e-12,	384.588,	2.636963e-11,	384.364,	2.293412e-10,	384.662,	3.769874e-09,	384.29,	3.794231e-08
274.047,	1.54324,	0.0147626,	1,	401.659,	2.516332e-09,	401.883,	2.717704e-10,	401.957,	4.427258e-12,	402.032,	2.759474e-11,	401.808,	2.248519e-10,	402.106,	3.733862e-09,	401.734,	3.735833e-08
282.74,	1.68382,	0.0992665,	1,	419.102,	2.508324e-09,	419.325,	2.736358e-10,	419.4,	4.383098e-12,	419.474,	3.211379e-11,	419.251,	2.290176e-10,	419.549,	3.732533e-09,	419.176,	3.733021e-08
292.035,	1.49791,	0.000286214,	1,	436.544,	2.502295e-09,	436.767,	2.784167e-10,	436.842,	4.3612e-12,	436.916,	3.76644e-11,	436.693,	2.330726e-10,	436.991,	3.755735e-09,	436.618,	3.749275e-08
301.33,	1.31198,	-0.000415172,	1,	453.987,	2.436097e-09,	454.211,	2.662777e-09,	454.285,	4.442228e-12,	454.36,	4.67295e-11,	454.136,	2.391135e-10,	454.434,	3.813999e-09,	454.062,	3.607414e-08
310.625,	1.12603,	-0.00106501,	1,	471.429,	2.436069e-09,	471.652,	3.738004e-10,	471.727,	4.50239e-12,	471.801,	3.572364e-11,	471.578,	2.284222e-10,	471.876,	3.783851e-09,	471.503,	3.747337e-08
319.92,	0.940192,	-0.00327958,	1,	488.872,	2.468111e-09,	489.095,	2.961664e-10,	489.17,	4.377031e-12,	489.244,	3.143786e-11,	489.021,	2.291983e-10,	489.319,	3.749224e-09,	488.946,	3.730477e-08
329.215,	0.754243,	-0.032868,	1,	506.314,	2.48942e-09,	506.538,	2.782994e-10,	506.612,	4.407779e-12,	506.687,	3.093379e-11,	506.463,	2.402757e-10,	506.761,	3.733626e-09,	506.389,	3.724092e-08
338.51,	0.568361,	-0.00218689,	1,	523.757,	2.498932e-09,	523.981,	2.756145e-10,	524.055,	4.110522e-12,	524.13,	2.862844e-11,	523.906,	2.284428e-10,	524.204,	3.756625e-09,	523.832,	3.718646e-08
347.806,	0.382409,	-0.00151861,	1,	541.2,	2.658288e-09,	541.423,	2.768357e-10,	541.498,	4.115279e-12,	541.572,	2.670106e-11,	541.349,	2.279947e-10,	541.647,	3.75264e-09,	541.274,	3.725717e-08
357.101,	0.196395,	-0.00581243,	1,	558.641,	2.505788e-09,	558.865,	2.681801e-10,	558.939,	4.175168e-12,	559.014,	2.587739e-11,	558.79,	2.251501e-10,	559.088,	3.713837e-09,	558.716,	3.712674e-08
366.283,	0.0128859,	-0.234524,	1,	576.085,	2.516134e-09,	576.309,	2.716518e-10,	576.382,	4.341404e-12,	576.457,	2.837521e-11,	576.234,	2.250258e-10,	576.532,	3.770463e-09,	576.16,	3.809506e-08
374.979,	0.182162,	0.0062341,	1,	593.527,	2.502809e-09,	593.75,	2.726946e-10,	593.825,	4.605258e-12,	593.899,	3.319602e-11,	593.676,	2.274348e-10,	593.974,	3.735966e-09,	593.601,	3.731261e-08
384.274,	0.368081,	0.00149842,	1,	610.97,	2.500819e-09,	611.193,	3.398705e-10,	611.268,	4.414889e-12,	611.342,	3.803581e-11,	611.119,	2.303773e-10,	611.417,	3.766099e-09,	611.044,	3.739093e-08
393.569,	0.553898,	0.000575421,	1,	628.412,	2.352181e-09,	628.636,	1.090796e-09,	628.71,	4.534637e-12,	628.785,	4.004737e-11,	628.561,	2.798133e-10,	628.859,	3.71482e-09,	628.487,	3.658986e-08
402.849,	0.739574,	0.00145777,	1,	645.855,	2.458385e-09,	646.078,	3.251338e-10,	646.153,	4.328261e-12,	646.227,	3.345143e-11,	646.004,	2.262901e-10,	646.302,	3.750868e-09,	645.929,	3.724825e-08
411.845,	0.919531,	0.00623782,	2,	663.297,	2.481368e-09,	663.52,	2.881357e-10,	663.595,	4.300906e-12,	663.669,	3.094203e-11,	663.446,	2.262886e-10,	663.744,	3.736322e-09,	663.371,	3.713474e-08
421.14,	1.1054,	0.00621659,	2,	680.738,	2.48417e-09,	680.962,	2.729746e-10,	681.036,	4.442072e-12,	681.111,	2.92562e-11,	680.887,	2.239433e-10,	681.185,	3.717488e-09,	680.813,	3.68651e-08
430.435,	1.29131,	0.00753339,	2,	698.182,	2.49312e-09,	698.406,	2.725626e-10,	698.48,	4.102365e-12,	698.555,	2.797496e-11,	698.331,	2.31747e-10,	698.629,	3.745644e-09,	698.257,	3.720925e-08
439.73,	1.4772,	0.00907191,	2,	715.625,	2.550159e-09,	715.849,	2.711825e-10,	715.924,	4.111754e-12,	715.997,	2.65296e-11,	715.774,	2.244988e-10,	716.072,	3.742565e-09,	715.7,	3.798954e-08
449.025,	1.663159,	0.114912,	2,	733.066,	2.507474e-09,	733.29,	2.717452e-10,	733.364,	4.590702e-12,	733.439,	2.511159e-11,	733.215,	2.438439e-10,	733.513,	3.725792e-09,	733.141,	3.736278e-08
458.032,	1.55759,	0.00160596,	2,	750.509,	2.522632e-09,	750.733,	2.699152e-10,	750.807,	4.055679e-12,	750.882,	2.922125e-11,	750.658,	2.281652e-10,	750.956,	3.698598e-09,	750.584,	3.718679e-08
467.327,	1.37165,	-0.000291934,	2,	767.953,	2.505641e-09,	768.176,	2.756193e-10,	768.251,	4.315111e-12,	768.325,	3.10157e-11,	768.102,	2.33317e-10,	768.4,	3.711633e-09,	768.027,	3.781131e-08
476.623,	1.18573,	-0.000806718,	2,	785.394,	2.439593e-09,	785.617,	1.072324e-09,	785.692,	4.271558e-12,	785.766,	3.89513e-11,	785.543,	2.296442e-10,	785.841,	3.714677e-09,	785.468,	3.771674e-08
485.918,	0.99985,	-0.00219914,	2,	802.836,	2.413144e-09,	803.06,	5.811915e-10,	803.134,	4.400575e-12,	803.209,	3.585361e-11,	802.985,	2.590211e-10,	803.283,	3.763699e-09,	802.911,	3.701896e-08
495.213,	0.813894,	-0.0111018,	2,	820.28,	2.463423e-09,	820.503,	3.084379e-10,	820.578,	4.417594e-12,	820.652,	3.079688e-11,	820.429,	2.253829e-10,	820.727,	3.73401e-09,	820.354,	3.788411e-08
504.508,	0.62805,	-0.00468696,	2,	837.723,	2.491694e-09,	837.946,	2.815699e-10,	838.021,	4.018871e-12,	838.095,	3.015809e-11,	837.872,	2.408145e-10,	838.17,	3.738266e-09,	837.797,	3.716553e-08
513.803,	0.4421019,	-0.00126397,	2,	855.165,	2.490648e-09,	855.389,	2.725833e-10,	855.463,	4.133467e-12,	855.538,	2.804208e-11,	855.314,	2.263064e-10,	855.612,	3.725308e-09,	855.24,	3.693647e-08
523.098,	0.256093,	-0.00496387,	2,	872.608,	1.29563e-08,	872.832,	2.69199e-10,	872.906,	4.020356e-12,	872.98,	2.731273e-11,	872.757,	2.194352e-10,	873.055,	3.801557e-09,	872.683,	3.710788e-08
532.393,	0.0702026,	-0.01193,	2,	890.05,	2.527413e-09,	890.273,	2.716586e-10,	890.348,	4.182851e-12,	890.422,	2.553394e-11,	890.199,	2.246815e-10,	890.497,	3.723928e-09,	890.125,	3.746473e-08
540.962,	0.1222099,	0.00939029,	2,	907.492,	2.502037e-09,	907.716,	2.69058e-10,	907.79,	4.595058e-12,	907.865,	2.740906e-11,	907.641,	2.241713e-10,	907.939,	3.70161e-09,	907.567,	3.732515e-08
550.257,	0.308164,	0.00466015,	2,	924.935,	2.504533e-09,	925.159,	2.785356e-10,	925.233,	4.492353e-12,	925.308,	3.041179e-11,	925.084,	2.819968e-10,	925.382,	3.760296e-09,	925.01,	3.689748e-08
559.552,	0.493903,	0.00045251,	2,	942.377,	2.511566e-09,	942.6,	2.737583e-10,	942.675,	4.208447e-12,	942.749,	3.393703e-11,	942.526,	2.240814e-10,	942.824,	3.744624e-09,	942.451,	3.722785e-08
568.847,	0.679912,	0.0011298,	2,	959.821,	2.444609e-09,	960.044,	3.209961e-09,	960.119,	4.462079e-12,	960.193,	4.375359e-11,	959.97,	2.325173e-10,	960.268,	3.7927e-09,	959.895,	3.51498e-08
577.827,	0.8595522,	0.00587868,	3,	977.262,	2.437215e-09,	977.486,	3.981097e-10,	977.56,	4.129699e-12,	977.635,	3.303557e-11,	977.411,	2.318108e-10,	977.709,	3.726683e-09,	977.337,	3.778588e-08
587.122,	1.045459,	0.00611408,	3,	994.705,	2.481288e-09,	994.928,	2.960832e-10,	995.003,	4.364734e-12,	995.077,	3.035975e-11,	994.854,	2.241086e-10,	995.152,	3.745345e-09,	994.779,	3.821873e-08
596.418,	1.23138,	0.00706621,	3,	1012.15,	2.477566e-09,	1012.37,	2.759882e-10,	1012.44,	4.020368e-12,	1012.52,	2.969868e-11,	1012.3,	2.220801e-10,	1012.59,	3.735766e-09,	1012.22,	3.818602e-08
605.713,	1.41722,	0.00775745,	3,	1029.59,	2.510991e-09,	1029.81,	2.673633e-10,	1029.89,	4.016018e-12,	1029.96,	2.725321e-11,	1029.74,	2.156045e-10,	1030.04,	3.748435e-09,	1029.66,	3.701085e-08
615.008,	1.60322,	0.0346877,	3,	1047.03,	2.791127e-09,	1047.26,	2.732513e-10,	1047.33,	4.625304e-12,	1047.41,	2.679554e-11,	1047.18,	2.71759e-10,	1047.48,	3.725632e-09,	1047.11,	3.718448e-08
624.03,	1.61726,	0.0092916,	3,	1064.48,	2.531733e-09,	1064.7,	2.655181e-10,	1064.77,	3.995089e-12,	1064.85,	2.494895e-11,	1064.625,	2.134874e-10,	1064.92,	3.686232e-09,	1064.55,	3.721169e-08
633.325,	1.431304,	-0.000136362,	3,	1081.92,	2.51008e-09,	1082.14,	2.660183e-10,	1082.21,	4.183473e-12,	1082.29,	2.675189e-11,	1082.07,	2.12588e-10,	1082.36,	3.717213e-09,	1081.99,	3.772766e-08
642.62,	1.24545,	-0.000621124,	3,	1099.36,	2.513269e-09,	1099.58,	2.641028e-10,	1099.66,	4.110976e-12,	1099.73,	2.598435e-11,	1099.51,	2.117514e-10,	1099.81,	3.686045e-09,	1099.43,	3.708748e-08
651.915,	1.05952,	-0.00155553,	3,	1116.8,	2.510522e-09,	1117.03,	2.636049e-10,	1117.1,	3.986844e-12,	1117.17,	2.542643e-11,	1116.95,	2.104229e-10,	1117.25,	3.722046e-09,	1116.88,	3.712943e-08
661.21,	0.873606,	-0.00571523,	3,	1134.24,	2.526007e-09,	1134.47,	2.651766e-10,	1134.54,	3.925428e-12,	1134.62,	2.497226e-11,	1134.39,	2.120506e-10,	1134.69,	3.697912e-09,	1134.32,	3.709237e-08
670.506,	0.687689,	-0.0189102,	3,	1151.69,	2.508508e-09,	1151.91,	2.636995e-10,	1151.99,	4.155489e-12,	1152.06,	2.550612e-11,	1151.84,	2.119996e-10,	1152.13,	3.753533e-09,	1151.76,	3.778221e-08
679.801,	0.501778,	-0.00150958,	3,	1169.13,	2.506182e-09,	1169.35,	2.628552e-10,	1169.43,	4.099826e-12,	1169.5,	2.552044e-11,	1169.28,	2.092365e-10,	1169.58,	3.725084e-09,	1169.2,	3.706427e-08
689.096,	0.315803,	-0.00423886,	3,	1186.57,	2.515308e-09,	1186.8,	2.637187e-10,	1186.87,	3.850076e-12,	1186.95,	2.524134e-11,	1186.72,	2.10649e-10,	1187.02,	3.724695e-09,	1186.65,	3.694964e-08
698.391,	0.1298558,	-0.0112756,	3,	1204.02,	2.498109e-09,	1204.24,	2.633432e-10,	1204.31,	4.152266e-12,	1204.39,	2.541653e-11,	1204.16,	2.10871e-10,	1204.46,	3.708342e-09,	1204.09,	3.713362e-08
706.944,	0.0622713,	0.0116179,	3,	1221.46,	2.511064e-09,	1221.68,	2.602704e-10,	1221.76,	3.820242e-12,	1221.83,	2.557417e-11,	1221.61,	2.087722e-10,	1221.9,	3.700073e-09,	1221.53,	3.686457e-08
716.239,	0.248164,	0.00499864,	3,	1238.9,	2.515044e-09,	1239.12,	2.604287e-10,	1239.2,	4.206756e-12,	1239.27,	2.515491e-11,	1239.05,	2.110559e-10,	1239.35,	3.69964e-09,	1238.97,	3.725147e-08
725.534,	0.433972,	0.000476198,	3,	1256.34,	2.518873e-09,	1256.57,	2.64711e-10,	1256.64,	4.21118e-12,	1256.71,	2.545985e-11,	1256.49,	2.105601e-10,	1256.79,	3.739443e-09,	1256.42,	3.703087e-08
734.83,	0.619943,	0.000849052,	3,	1273.79,	2.516084e-09,	1274.01,	2.625409e-10,	1274.08,	4.039496e-12,	1274.16,	2.461873e-11,	1273.93,	2.127135e-10,	1274.23,	3.728362e-09,	1273.86,	3.68906e-08
743.81,	0.799573,	0.00267753,	4,	1291.23,	2.521442e-09,	1291.45,	2.604122e-10,	1291.53,	3.721991e-12,	1291.6,	2.48086e-11,	1291.38,	2.120158e-10,	1291.67,	3.724563e-09,	1291.3,	3.677519e-08
753.105,	0.985505,	0.00605686,	4,	1308.67,	2.52159e-09,	1308.89,	2.613764e-10,	1308.97,	3.946607e-12,	1309.04,	2.477028e-11,	1308.82,	2.119283e-10,	1309.12,	3.711361e-09,	1308.74,	3.711162e-08
762.4,	1.17139,	0.00656675,	4,	1326.11,	2.519202e-09,	1326.34,	2.619877e-10,	1326.41,	4.238694e-12,	1326.49,	2.440736e-11,	1326.26,	2.10652e-10,	1326.56,	3.729637e-09,	1326.19,	3.716019e-08
771.695,	1.35726,	0.00743747,	4,	1343.56,	2.530216e-09,	1343.78,	2.633589e-10,	1343.85,	3.815521e-12,	1343.93,	2.43883e-11,	1343.7,	2.11584e-10,	1344,	3.758518e-09,	1343.63,	3.726841e-08
780.99,	1.54322,	0.014422,	4,	1361,	2.525069e-09,	1361.22,	2.637818e-10,	1361.3,	3.731318e-12,	1361.37,	2.432574e-11,	1361.15,	2.096796e-10,	1361.45,	3.702217e-09,	1361.07,	3.702626e-08
790.027,	1.67691,	0.0752013,	4,	1378.44,	2.536606e-09,	1378.66,	2.602806e-10,	1378.74,	4.161208e-12,	1378.81,	2.446706e-11,	1378.59,	2.220914e-10,	1378.89,	3.745089e-09,	1378.52,	3.726578e-08
799.323,	1.49099,	0.00014434,	4,	1395.88,	2.511553e-09,	1396.11,	2.596419e-10,	1396.18,	3.814209e-12,	1396.26,	2.485953e-11,	1396.03,	2.105474e-10,	1396.33,	3.707396e-09,	1395.96,	3.710826e-08
808.618,	1.30509,	-0.000482341,	4,	1413.33,	2.536764e-09,	1413.55,	2.591876e-10,	1413.62,	4.071161e-12,	1413.7,	2.424276e-11,	1413.47,	2.096691e-10,	1413.77,	3.74279e-09,	1413.4,	3.707476e-08
817.913,	1.11916,	-0.00113532,	4,	1430.77,	2.525651e-09,	1430.99,	2.590118e-10,	1431.07,	3.850991e-12,	1431.14,	2.403328e-11,	1430.92,	2.110779e-10,	1431.21,	3.715792e-09,	1430.84,	3.712859e-08
827.208,	0.933304,	-0.00350237,	4,	1448.21,	2.863092e-09,	1448.43,	2.575908e-10,	1448.51,	4.199455e-12,	1448.58,	2.36337e-11,	1448.36,	2.097617e-10,	1448.66,	3.729136e-09,	1448.29,	3.670732e-08
836.503,	0.747353,	-0.0391583,	4,	1465.65,	3.237315e-09,	1465.88,	2.57448e-10,	1465.95,	4.268984e-12,	1466.03,	2.420149e-11,	1465.8,	2.085604e-10,	1466.1,	3.69825e-09,	1465.73,	3.778583e-08
845.798,	0.561456,	-0.0021154,	4,	1483.1,	3.299235e-09,	1483.32,	2.578063e-10,	1483.39,	3.646276e-12,	1483.47,	2.357066e-11,	1483.24,	2.095268e-10,	1483.54,	3.725799e-09,	1483.17,	3.702351e-08
855.093,	0.375502,	-0.00178281,	4,	1500.54,	3.318033e-09,	1500.76,	2.574573e-10,	1500.84,	4.06074e-12,	1500.91,	2.353923e-11,	1500.69,	2.100076e-10,	1500.98,	3.706143e-09,	1500.61,	3.670797e-08
864.389,	0.189499,	-0.00611675,	4,	1517.98,	3.322407e-09,	1518.2,	2.585737e-10,	1518.28,	4.048852e-12,	1518.35,	2.355637e-11,	1518.13,	2.098059e-10,	1518.43,	3.718813e-09,	1518.06,	3.688466e-08
873.339,	0.0108348,	-0.250105,	4,	1535.42,	3.326629e-09,	1535.65,	2.573485e-10,	1535.72,	3.914701e-12,	1535.8,	2.356868e-11,	1535.57,	2.214851e-10,	1535.87,	3.675146e-09,	1535.5,	3.66975e-08
882.222,	0.188164,	0.00599859,	4,	1552.87,	3.341923e-09,	1553.09,	2.601427e-10,	1553.16,	3.850538e-12,	1553.24,	2.363139e-11,	1553.01,	2.108557e-10,	1553.31,	3.732812e-09,	1552.94,	3.704036e-08
891.517,	0.37406,	0.00128698,	4,	1570.31,	3.349251e-09,	1570.53,	2.590426e-10,	1570.61,	4.16235e-12,	1570.68,	2.408453e-11,	1570.46,	2.077288e-10,	1570.76,	3.704644e-09,	1570.38,	3.681511e-08
900.812,	0.5598973,	0.000589844,	4,	1587.75,	3.350131e-09,	1587.97,	2.611811e-10,	1588.05,	3.877952e-12,	1588.12,	2.39218e-11,	1587.9,	2.111746e-10,	1588.2,	3.704291e-09,	1587.83,	3.68269e-08
909.935,	0.742459,	0.00143948,	5,	1605.19,	3.367904e-09,	1605.42,	2.564579e-10,	1605.49,	4.154519e-12,	1605.57,	2.391621e-11,	1605.34,	2.219918e-10,	1605.64,	3.722947e-09,	1605.27,	3.703897e-08
919.088,	0.925552,	0.00630947,	5,	1622.64,	3.375364e-09,	1622.86,	2.572327e-10,	1622.93,	4.198393e-12,	1623.01,	2.324685e-11,	1622.79,	2.089587e-10,	1623.08,	3.709206e-09,	1622.71,	3.693239e-08
928.383,	1.11139,	0.00614876,	5,	1640.08,	3.361319e-09,	1640.3,	2.599146e-10,	1640.38,	3.995569e-12,	1640.45,	2.366832e-11,	1640.23,	2.106946e-10,	1640.53,	3.701993e-09,	1640.15,	3.781499e-08
937.678,	1.29733,	0.00724408,	5,	1657.52,	3.385338e-09,	1657.74,	2.566141e-10,	1657.82,	4.012043e-12,	1657.89,	2.354679e-11,	1657.67,	2.091062e-10,	1657.97,	3.726186e-09,	1657.6,	3.681635e-08
946.973,	1.48321,	0.0088917,	5,	1674.96,	3.398241e-09,	1675.19,	2.575272e-10,	1675.26,	3.919867e-12,	1675.34,	2.338325e-11,	1675.11,	2.097698e-10,	1675.41,	3.667899e-09,	1675.04,	3.684733e-08
956.268,	1.66914,	0.137727,	5,	1692.41,	2.644596e-09,	1692.63,	2.577558e-10,	1692.7,	3.933538e-12,	1692.78,	2.29204e-11,	1692.56,	2.110694e-10,	1692.85,	3.717848e-09,	1692.48,	3.69009e-08
965.305,	1.55099,	0.00127125,	5,	1709.85,	2.574363e-09,	1710.07,	2.577284e-10,	1710.15,	3.763696e-12,	1710.22,	2.30928e-11,	1710,	2.095489e-10,	1710.3,	3.718869e-09,	1709.92,	3.706692e-08
974.6,	1.36503,	-0.000349749,	5,	1727.29,	2.551711e-09,	1727.52,	2.588194e-10,	1727.59,	4.121822e-12,	1727.66,	2.309484e-11,	1727.44,	2.097301e-10,	1727.74,	3.69366e-09,	1727.37,	3.698587e-08
983.895,	1.179124,	-0.000859912,	5,	1744.73,	2.552047e-09,	1744.96,	2.589938e-10,	1745.03,	4.150574e-12,	1745.11,	2.337462e-11,	1744.88,	2.130377e-10,	1745.18,	3.741862e-09,	1744.81,	3.702151e-08
993.191,	0.99325,	-0.0023232,	5,	1762.18,	2.541982e-09,	1762.4,	2.557563e-10,	1762.47,	4.151772e-12,	1762.55,	2.341028e-11,	1762.33,	2.094852e-10,	1762.62,	3.723518e-09,	1762.25,	3.683337e-08
1002.49,	0.807293,	-0.0125526,	5,	1779.62,	2.547051e-09,	1779.84,	2.563291e-10,	1779.92,	3.803078e-12,	1779.99,	2.35273e-11,	1779.77,	2.091373e-10,	1780.07,	3.679413e-09,	1779.69,	3.716455e-08
1011.78,	0.62143,	-0.00414213,	5,	1797.06,	2.534838e-09,	1797.29,	2.540581e-10,	1797.36,	3.77066e-12,	1797.43,	2.289555e-11,	1797.21,	2.115669e-10,	1797.51,	3.701452e-09,	1797.14,	3.692711e-08
1021.08,	0.435497,	-0.00132619,	5,	1814.51,	2.544986e-09,	1814.73,	2.562258e-10,	1814.8,	3.984098e-12,	1814.88,	2.332876e-11,	1814.65,	2.101366e-10,	1814.95,	3.738013e-09,	1814.58,	3.721942e-08
1030.37,	0.249485,	-0.00494099,	5,	1831.95,	2.55257e-09,	1832.17,	2.575619e-10,	1832.24,	4.115036e-12,	1832.32,	2.387198e-11,	1832.1,	2.097963e-10,	1832.39,	3.750192e-09,	1832.02,	3.709401e-08
1039.67,	0.0636012,	-0.0122988,	5,	1849.39,	2.540956e-09,	1849.61,	2.574115e-10,	1849.69,	4.152271e-12,	1849.76,	2.365421e-11,	1849.54,	2.104437e-10,	1849.84,	3.675264e-09,	1849.46,	3.76512e-08
1048.2,	0.128227,	0.00905794,	5,	1866.83,	2.548423e-09,	1867.06,	2.558142e-10,	1867.13,	4.061884e-12,	1867.2,	2.298878e-11,	1866.98,	2.105473e-10,	1867.28,	3.72992e-09,	1866.91,	3.704532e-08
1057.5,	0.314149,	0.00451322,	5,	1884.28,	2.545993e-09,	1884.5,	2.578349e-10,	1884.57,	3.990092e-12,	1884.65,	2.290163e-11,	1884.42,	2.112449e-10,	1884.72,	3.666905e-09,	1884.35,	3.776039e-08
1066.79,	0.499902,	0.000446858,	5,	1901.72,	2.535691e-09,	1901.94,	2.5609e-10,	1902.01,	3.634929e-12,	1902.09,	2.403172e-11,	1901.87,	2.087511e-10,	1902.16,	3.713019e-09,	1901.79,	3.766575e-08
1076.09,	0.6859172,	0.00114079,	5,	1919.16,	2.53355e-09,	1919.38,	2.58206e-10,	1919.46,	3.857789e-12,	1919.53,	2.367647e-11,	1919.31,	2.087432e-10,	1919.61,	3.672506e-09,	1919.23,	3.689445e-08
1099,	0.7564,	2.504715e-06,	6,	1936.6,	2.545294e-09,	1936.82,	2.571237e-10,	1936.9,	3.862641e-12,	1936.97,	2.309293e-11,	1936.75,	2.083502e-10,	1937.05,	3.701314e-09,	1936.67,	3.701918e-08
1130,	0.792647,	2.88617e-06,	6,	1954.04,	2.543914e-09,	1954.27,	2.56582e-10,	1954.34,	3.919135e-12,	1954.42,	2.285699e-11,	1954.19,	2.104475e-10,	1954.49,	3.676057e-09,	1954.12,	3.680942e-08
1161,	0.815528,	2.161406e-06,	6,	1971.49,	2.538091e-09,	1971.71,	2.546665e-10,	1971.79,	3.804681e-12,	1971.86,	2.31641e-11,	1971.64,	2.101265e-10,	1971.93,	3.672777e-09,	1971.56,	3.692015e-08
1192,	0.830531,	2.77173e-06,	6,	1988.93,	2.556087e-09,	1989.15,	2.566489e-10,	1989.23,	3.948487e-12,	1989.3,	2.358332e-11,	1989.08,	2.127435e-10,	1989.38,	3.696811e-09,	1989,	3.796045e-08
1223,	0.842209,	2.46657e-06,	6,	2006.37,	4.109973e-09,	2006.6,	2.545758e-10,	2006.67,	4.157154e-12,	2006.74,	2.347749e-11,	2006.52,	2.114391e-10,	2006.82,	3.728146e-09,	2006.45,	3.708545e-08
1254,	0.852146,	2.35213e-06,	6,	2023.82,	4.269034e-09,	2024.04,	2.55289e-10,	2024.11,	3.888901e-12,	2024.19,	2.329684e-11,	2023.96,	2.080858e-10,	2024.26,	3.682107e-09,	2023.89,	3.763304e-08
1285,	0.861487,	2.39028e-06,	6,	2041.26,	4.349448e-09,	2041.48,	2.554015e-10,	2041.56,	3.816404e-12,	2041.63,	2.384343e-11,	2041.41,	2.10614e-10,	2041.7,	3.692838e-09,	2041.33,	3.69622e-08
1316,	0.870702,	2.73359e-06,	6,	2058.7,	4.344501e-09,	2058.92,	2.637624e-10,	2059,	4.674339e-12,	2059.07,	2.331385e-11,	2058.85,	2.63007e-10,	2059.15,	3.702541e-09,	2058.77,	3.697473e-08
1347,	0.879508,	2.39028e-06,	6,	2076.14,	4.369026e-09,	2076.37,	2.527699e-10,	2076.44,	3.728566e-12,	2076.52,	2.338157e-11,	2076.29,	2.085402e-10,	2076.59,	3.713912e-09,	2076.22,	3.673403e-08
1378,	0.887878,	2.2377e-06,	6,	2093.59,	4.373863e-09,	2093.81,	2.536669e-10,	2093.88,	4.132157e-12,	2093.96,	2.340456e-11,	2093.73,	2.089761e-10,	2094.03,	3.742267e-09,	2093.66,	3.792045e-08
1394.43,	0.597181,	-0.00249762,	7,	2111.03,	4.37819e-09,	2111.25,	2.578348e-10,	2111.33,	4.221755e-12,	2111.4,	2.390327e-11,	2111.18,	2.100494e-10,	2111.47,	3.726248e-09,	2111.1,	3.711166e-08
1403.95,	0.2870186,	-0.00249736,	7,	2128.47,	4.382844e-09,	2128.69,	2.565465e-10,	2128.77,	4.094529e-12,	2128.84,	2.294221e-11,	2128.62,	2.098034e-10,	2128.92,	3.68567e-09,	2128.54,	3.693835e-08
1434.83,	0.0983638,	-0.0024974,	7,	2145.91,	4.37781e-09,	2146.14,	2.534146e-10,	2146.21,	4.025648e-12,	2146.29,	2.384747e-11,	2146.06,	2.059983e-10,	2146.36,	3.743663e-09,	2145.99,	3.688441e-08
1465.83,	0.0485306,	-0.00249732,	7,	2163.36,	4.392234e-09,	2163.58,	2.568409e-10,	2163.65,	4.180494e-12,	2163.73,	2.357921e-11,	2163.5,	2.092592e-10,	2163.8,	3.736992e-09,	2163.43,	3.714906e-08
1496.83,	0.0470865,	-0.00249728,	7,	2180.8,	4.404772e-09,	2181.02,	2.537152e-10,	2181.1,	4.084228e-12,	2181.17,	2.331066e-11,	2180.95,	2.084165e-10,	2181.24,	3.720928e-09,	2180.87,	3.7017e-08
1527.83,	0.0468,	-0.0024969,	7,	2198.24,	4.401854e-09,	2198.46,	2.526796e-10,	2198.54,	3.643731e-12,	2198.61,	2.365523e-11,	2198.39,	2.091678e-10,	2198.69,	3.736881e-09,	2198.32,	3.712221e-08
1558.83,	0.046609,	-0.002497396,	7,	2215.68,	4.388569e-09,	2215.91,	2.553489e-10,	2215.98,	4.326915e-12,	2216.06,	2.404315e-11,	2215.83,	2.085789e-10,	2216.13,	3.720331e-09,	2215.76,	3.682303e-08
1589.83,	0.0464714,	-0.00249717,	7,	2233.13,	4.398843e-09,	2233.35,	2.691112e-10,	2233.42,	4.441507e-12,	2233.5,	2.37415e-11,	2233.28,	2.998863e-10,	2233.57,	3.730913e-09,	2233.2,	3.695908e-08
1620.83,	0.04636446,	-0.00249766,	7,	2250.57,	4.398965e-09,	2250.79,	2.557755e-10,	2250.87,	4.054641e-12,	2250.94,	2.307632e-11,	2250.72,	2.082571e-10,	2251.02,	3.701335e-09,	2250.64,	3.678683e-08
1651.83,	0.0463874,	-0.00249762,	7,	2268.01,	4.400407e-09,	2268.23,	2.5648e-10,	2268.31,	3.9154e-12,	2268.38,	2.329594e-11,	2268.16,	2.095484e-10,	2268.46,	3.67518e-09,	2268.08,	3.694571e-08
1681,	0.0538601,	2.88617e-06,	8,	2285.45,	2.915744e-09,	2285.68,	2.545215e-10,	2285.75,	4.035397e-12,	2285.83,	2.337691e-11,	2285.6,	2.045845e-10,	2285.9,	3.721293e-09,	2285.53,	3.716571e-08
1712,	0.0916514,	2.27584e-06,	8,	2302.89,	2.627444e-09,	2303.12,	2.543789e-10,	2303.19,	3.897953e-12,	2303.27,	2.316974e-11,	2303.04,	2.090274e-10,	2303.34,	3.709667e-09,	2302.97,	3.692855e-08
1743,	0.110173,	2.31399e-06,	8,	2320.34,	2.583604e-09,	2320.56,	2.521553e-10,	2320.64,	3.883044e-12,	2320.71,	2.279311e-11,	2320.49,	2.113229e-10,	2320.79,	3.654463e-09,	2320.41,	3.762937e-08
1774,	0.1255,	2.92432e-06,	8,	2337.78,	2.57921e-09,	2338,	2.538275e-10,	2338.08,	3.961859e-12,	2338.15,	2.295114e-11,	2337.93,	2.074192e-10,	2338.23,	3.724131e-09,	2337.86,	3.702665e-08
1805,	0.14064,	2.161406e-06,	8,	2355.22,	2.572352e-09,	2355.44,	2.545243e-10,	2355.52,	3.965045e-12,	2355.59,	2.349987e-11,	2355.37,	2.093704e-10,	2355.67,	3.703767e-09,	2355.3,	3.760753e-08
1836,	0.157832,	3.19133e-06,	8,	2372.67,	2.55006e-09,	2372.89,	2.522557e-10,	2372.96,	4.062151e-12,	2373.04,	2.271609e-11,	2372.82,	2.075805e-10,	2373.11,	3.644562e-09,	2372.74,	3.673407e-08
1867,	0.177541,	3.11504e-06,	8,	2390.11,	2.554496e-09,	2390.33,	2.527127e-10,	2390.41,	3.670451e-12,	2390.48,	2.314751e-11,	2390.26,	2.093475e-10,	2390.56,	3.680407e-09,	2390.18,	3.65954e-08
1898,	0.199516,	2.2377e-06,	8,	2407.55,	2.55221e-09,	2407.77,	2.535462e-10,	2407.85,	3.971603e-12,	2407.92,	2.292634e-11,	2407.7,	2.053437e-10,	2408,	3.67909e-09,	2407.625,	3.673755e-08
1929,	0.223921,	3.15319e-06,	8,	2424.99,	2.556203e-09,	2425.22,	2.535072e-10,	2425.29,	3.784689e-12,	2425.37,	2.283538e-11,	2425.14,	2.099692e-10,	2425.44,	3.680649e-09,	2425.07,	3.669451e-08
1960,	0.2509006,	2.2377e-06,	8,	2442.43,	2.555689e-09,	2442.66,	2.513382e-10,	2442.73,	3.931626e-12,	2442.81,	2.242929e-11,	2442.58,	2.064392e-10,	2442.88,	3.64772e-09,	2442.51,	3.652479e-08
1984.21,	0.157523,	-0.00499749,	9,	2459.88,	2.569491e-09,	2460.1,	2.538397e-10,	2460.18,	3.720841e-12,	2460.25,	2.338961e-11,	2460.03,	2.082612e-10,	2460.33,	3.676326e-09,	2459.95,	3.689497e-08
2014.91,	0.0374171,	-0.0049976,	9,	2477.32,	2.558717e-09,	2477.54,	2.551488e-10,	2477.62,	4.487878e-12,	2477.69,	2.340996e-11,	2477.47,	2.071793e-10,	2477.77,	3.729134e-09,	2477.39,	3.702117e-08
2045.91,	0.03680966,	-0.00499764,	9,	2494.76,	2.551259e-09,	2494.99,	2.50834e-10,	2495.06,	3.944222e-12,	2495.14,	2.296666e-11,	2494.91,	2.071491e-10,	2495.21,	3.709428e-09,	2494.84,	3.670563e-08
2076.91,	0.0367256,	-0.00499726,	9,	2512.2,	2.556485e-09,	2512.43,	2.50845e-10,	2512.5,	3.744181e-12,	2512.58,	2.344072e-11,	2512.35,	2.071454e-10,	2512.65,	3.66927e-09,	2512.28,	3.787314e-08
2107.91,	0.0366798,	-0.0049973,	9,	2529.65,	2.569012e-09,	2529.87,	2.526953e-10,	2529.95,	4.167034e-12,	2530.02,	2.343866e-11,	2529.8,	2.130377e-10,	2530.1,	3.702755e-09,	2529.72,	3.666218e-08
2138.91,	0.0367103,	-0.00499833,	9,	2547.09,	2.55819e-09,	2547.31,	2.515213e-10,	2547.39,	3.989035e-12,	2547.46,	2.344567e-11,	2547.24,	2.094874e-10,	2547.54,	3.689413e-09,	2547.16,	3.674332e-08
2169.91,	0.0366034,	-0.00499794,	9,	2564.53,	2.563737e-09,	2564.76,	2.509159e-10,	2564.83,	3.971434e-12,	2564.9,	2.333571e-11,	2564.68,	2.106133e-10,	2564.98,	3.676707e-09,	2564.61,	3.676846e-08
2200.91,	0.0365537,	-0.00499753,	9,	2581.98,	2.561487e-09,	2582.2,	2.511375e-10,	2582.27,	4.015959e-12,	2582.35,	2.339193e-11,	2582.125,	2.049378e-10,	2582.42,	3.649917e-09,	2582.05,	3.649478e-08
2231.91,	0.03647729,	-0.00499753,	9,	2599.42,	6.079486e-09,	2599.64,	2.543012e-10,	2599.72,	3.737962e-12,	2599.79,	2.327669e-11,	2599.57,	2.081671e-10,	2599.86,	3.700754e-09,	2599.49,	3.688768e-08
2262.91,	0.0365117,	-0.00499768,	9,	2616.86,	6.234669e-09,	2617.08,	2.493735e-10,	2617.16,	4.184204e-12,	2617.23,	2.259829e-11,	2617.01,	2.079754e-10,	2617.31,	3.713833e-09,	2616.93,	3.657206e-08
2292,	0.0691989,	2.84802e-06,	10,	2634.3,	6.286403e-09,	2634.53,	2.487916e-10,	2634.6,	3.762685e-12,	2634.67,	2.329076e-11,	2634.45,	2.058223e-10,	2634.75,	3.686179e-09,	2634.38,	3.732743e-08
2323,	0.0932865,	2.46657e-06,	10,	2651.74,	6.346221e-09,	2651.97,	2.54179e-10,	2652.04,	3.848476e-12,	2652.12,	2.319929e-11,	2651.89,	2.112792e-10,	2652.19,	3.739337e-09,	2651.82,	3.670429e-08
2354,	0.108904,	2.08512e-06,	10,	2669.19,	6.35841e-09,	2669.41,	2.551202e-10,	2669.49,	3.733015e-12,	2669.56,	2.345121e-11,	2669.34,	2.075895e-10,	2669.63,	3.730029e-09,	2669.26,	3.777128e-08
2385,	0.122654,	2.69544e-06,	10,	2686.63,	6.334579e-09,	2686.85,	2.530633e-10,	2686.93,	3.946753e-12,	2687,	2.38461e-11,	2686.78,	2.074661e-10,	2687.08,	3.702208e-09,	2686.7,	3.659004e-08
2416,	0.136125,	2.61915e-06,	10,	2704.07,	6.350962e-09,	2704.3,	2.500391e-10,	2704.37,	4.039625e-12,	2704.45,	2.33062e-11,	2704.22,	2.031517e-10,	2704.52,	3.696375e-09,	2704.15,	3.741841e-08
2447,	0.1506879,	2.31399e-06,	10,	2721.52,	6.320521e-09,	2721.74,	2.49429e-10,	2721.81,	3.934601e-12,	2721.89,	2.311368e-11,	2721.66,	2.051511e-10,	2721.96,	3.671042e-09,	2721.59,	3.730925e-08
2478,	0.167154,	2.88617e-06,	10,	2738.96,	6.374071e-09,	2739.18,	2.521285e-10,	2739.26,	4.092783e-12,	2739.33,	2.348594e-11,	2739.11,	2.080582e-10,	2739.41,	3.707572e-09,	2739.03,	3.667353e-08
2509,	0.185694,	3.00061e-06,	10,	2756.4,	6.378748e-09,	2756.625,	2.544485e-10,	2756.7,	3.438316e-12,	2756.77,	2.365204e-11,	2756.55,	2.066628e-10,	2756.85,	3.671516e-09,	2756.48,	3.735288e-08
2540,	0.206099,	3.00061e-06,	10,	2773.84,	6.390648e-09,	2774.07,	2.596985e-10,	2774.14,	4.448949e-12,	2774.22,	2.268762e-11,	2773.99,	2.526952e-10,	2774.29,	3.696389e-09,	2773.92,	3.674078e-08
2571,	0.228937,	3.076897e-06,	10,	2791.29,	6.365646e-09,	2791.51,	2.517486e-10,	2791.58,	3.764217e-12,	2791.66,	2.302102e-11,	2791.43,	2.062508e-10,	2791.73,	3.674021e-09,	2791.36,	3.66549e-08
2589.53,	0.0329014,	-0.00999748,	11,	2808.73,	6.362867e-09,	2808.95,	2.473225e-10,	2809.03,	4.11604e-12,	2809.1,	2.309623e-11,	2808.88,	2.093743e-10,	2809.18,	3.701749e-09,	2808.8,	3.66834e-08
2620.53,	0.0281068,	-0.00999782,	11,	2826.17,	6.367119e-09,	2826.39,	2.507271e-10,	2826.47,	4.094326e-12,	2826.54,	2.260911e-11,	2826.32,	2.046e-10,	2826.62,	3.695328e-09,	2826.25,	3.671332e-08
2651.53,	0.02793107,	-0.00999691,	11,	2843.61,	6.387604e-09,	2843.84,	2.521732e-10,	2843.91,	4.115467e-12,	2843.99,	2.262549e-11,	2843.76,	2.069961e-10,	2844.06,	3.661827e-09,	2843.69,	3.749116e-08
2682.53,	0.027889,	-0.00999767,	11,	2861.06,	6.378441e-09,	2861.28,	2.492674e-10,	2861.36,	3.861652e-12,	2861.43,	2.256656e-11,	2861.21,	2.035676e-10,	2861.5,	3.693557e-09,	2861.13,	3.659574e-08
2713.53,	0.0278432,	-0.00999733,	11,	2878.5,	5.757866e-09,	2878.72,	2.498668e-10,	2878.8,	3.956735e-12,	2878.87,	2.238838e-11,	2878.65,	2.073078e-10,	2878.95,	3.677692e-09,	2878.57,	3.640942e-08
2744.53,	0.0277859,	-0.00999748,	11,	2895.94,	2.751029e-09,	2896.16,	2.502209e-10,	2896.24,	3.792348e-12,	2896.31,	2.296982e-11,	2896.09,	2.082747e-10,	2896.39,	3.70598e-09,	2896.02,	3.646164e-08
2775.53,	0.02785084,	-0.00999748,	11,	2913.38,	2.638995e-09,	2913.61,	2.491201e-10,	2913.68,	4.1056e-12,	2913.76,	2.261432e-11,	2913.53,	2.052642e-10,	2913.83,	3.648789e-09,	2913.46,	3.631789e-08
2806.53,	0.02773623,	-0.0099971,	11,	2930.83,	2.603748e-09,	2931.05,	2.478887e-10,	2931.12,	3.734659e-12,	2931.2,	2.243375e-11,	2930.98,	2.085997e-10,	2931.27,	3.632808e-09,	2930.9,	3.752025e-08
2837.53,	0.0277783,	-0.00999794,	11,	2948.27,	2.585152e-09,	2948.49,	2.473761e-10,	2948.57,	3.602492e-12,	2948.64,	2.239802e-11,	2948.42,	2.047112e-10,	2948.72,	3.656875e-09,	2948.34,	3.620287e-08
2868.53,	0.0277744,	-0.009997746,	11,	2965.71,	2.576489e-09,	2965.93,	2.492174e-10,	2966.01,	4.403122e-12,	2966.08,	2.25235e-11,	2965.86,	2.029115e-10,	2966.16,	3.618751e-09,	2965.79,	3.634662e-08
2898,	0.0716707,	2.31399e-06,	12,	2983.15,	2.572557e-09,	2983.38,	2.503326e-10,	2983.45,	4.046857e-12,	2983.53,	2.293717e-11,	2983.3,	2.068785e-10,	2983.6,	3.642505e-09,	2983.23,	3.709824e-08
2929,	0.0918539,	2.04697e-06,	12,	3000.6,	2.5665e-09,	3000.82,	2.46748e-10,	3000.89,	3.802898e-12,	3000.97,	2.263563e-11,	3000.74,	2.053841e-10,	3001.04,	3.636111e-09,	3000.67,	3.616309e-08
2960,	0.106081,	2.46657e-06,	12,	3018.04,	2.565729e-09,	3018.26,	2.457864e-10,	3018.34,	3.706425e-12,	3018.41,	2.309139e-11,	3018.19,	2.042906e-10,	3018.49,	3.663236e-09,	3018.11,	3.71092e-08
2991,	0.118673,	2.19955e-06,	12,	3035.48,	2.568942e-09,	3035.7,	2.531785e-10,	3035.78,	3.757437e-12,	3035.85,	2.268357e-11,	3035.63,	2.152649e-10,	3035.93,	3.681324e-09,	3035.55,	3.631595e-08
3022,	0.130917,	2.46657e-06,	12,	3052.92,	2.567194e-09,	3053.15,	2.504294e-10,	3053.22,	3.5712e-12,	3053.3,	2.302038e-11,	3053.07,	2.065831e-10,	3053.37,	3.621172e-09,	3053,	3.659849e-08
3053,	0.143762,	2.46657e-06,	12,	3070.37,	2.566529e-09,	3070.59,	2.461268e-10,	3070.66,	3.834281e-12,	3070.74,	2.306247e-11,	3070.52,	2.055175e-10,	3070.81,	3.621143e-09,	3070.44,	3.643709e-08
3084,	0.158268,	2.42842e-06,	12,	3087.81,	2.561984e-09,	3088.03,	2.481135e-10,	3088.11,	4.011336e-12,	3088.18,	2.242104e-11,	3087.96,	2.02905e-10,	3088.26,	3.644748e-09,	3087.88,	3.719283e-08
3115,	0.174477,	2.46657e-06,	12,	3105.25,	2.558661e-09,	3105.47,	2.491815e-10,	3105.55,	3.730213e-12,	3105.62,	2.293218e-11,	3105.4,	2.036714e-10,	3105.7,	3.641527e-09,	3105.33,	3.625438e-08
3146,	0.192529,	2.54286e-06,	12,	3122.69,	2.56384e-09,	3122.92,	2.501806e-10,	3122.99,	4.073556e-12,	3123.07,	2.266357e-11,	3122.84,	2.182948e-10,	3123.14,	3.641254e-09,	3122.77,	3.604768e-08
3177,	0.212467,	2.73359e-06,	12,	3140.14,	2.563836e-09,	3140.36,	2.466212e-10,	3140.43,	3.807225e-12,	3140.51,	2.240149e-11,	3140.29,	2.054801e-10,	3140.58,	3.641416e-09,	3140.21,	3.73347e-08
3194.52,	0.0238203,	-0.0149977,	13,	3157.58,	2.559686e-09,	3157.8,	2.499861e-10,	3157.88,	3.756163e-12,	3157.95,	2.238407e-11,	3157.73,	2.060336e-10,	3158.03,	3.634333e-09,	3157.65,	3.654024e-08
3225.52,	0.0232243,	-0.0149982,	13,	3175.02,	2.569339e-09,	3175.25,	2.467704e-10,	3175.32,	4.095412e-12,	3175.39,	2.289176e-11,	3175.17,	2.054335e-10,	3175.47,	3.651231e-09,	3175.1,	3.620429e-08
3256.52,	0.02316322,	-0.01499808,	13,	3192.46,	7.797089e-09,	3192.69,	2.497685e-10,	3192.76,	3.715248e-12,	3192.84,	2.359008e-11,	3192.61,	2.025665e-10,	3192.91,	3.676643e-09,	3192.54,	3.640428e-08
3287.52,	0.0230754,	-0.0149982,	13,	3209.91,	8.188467e-09,	3210.13,	2.500564e-10,	3210.2,	3.903471e-12,	3210.28,	2.239877e-11,	3210.06,	2.050885e-10,	3210.35,	3.691768e-09,	3209.98,	3.648247e-08
3318.52,	0.0231288,	-0.014998,	13,	3227.35,	8.246555e-09,	3227.57,	2.479201e-10,	3227.65,	3.865395e-12,	3227.72,	2.341129e-11,	3227.5,	2.052225e-10,	3227.8,	3.630924e-09,	3227.42,	3.625677e-08
3349.52,	0.0231021,	-0.0149977,	13,	3244.79,	8.273138e-09,	3245.02,	2.687654e-10,	3245.09,	5.139795e-12,	3245.16,	2.191995e-11,	3244.94,	3.081878e-10,	3245.24,	3.696399e-09,	3244.87,	3.63183e-08
3380.52,	0.0230257,	-0.01499808,	13,	3262.23,	8.310051e-09,	3262.46,	2.497926e-10,	3262.53,	3.674134e-12,	3262.61,	2.268849e-11,	3262.38,	2.042293e-10,	3262.68,	3.689691e-09,	3262.31,	3.740748e-08
3411.52,	0.0230945,	-0.0149977,	13,	3279.68,	8.32356e-09,	3279.9,	2.500697e-10,	3279.97,	4.00226e-12,	3280.05,	2.238621e-11,	3279.83,	2.080836e-10,	3280.12,	3.718668e-09,	3279.75,	3.642304e-08
3442.52,	0.0230371,	-0.014998,	13,	3297.12,	8.32526e-09,	3297.34,	2.476722e-10,	3297.42,	3.7927e-12,	3297.49,	2.299269e-11,	3297.27,	2.050581e-10,	3297.57,	3.673051e-09,	3297.19,	3.636379e-08
3473.52,	0.0230142,	-0.0149981,	13,	3314.56,	8.362667e-09,	3314.79,	2.491456e-10,	3314.86,	4.024835e-12,	3314.93,	2.30625e-11,	3314.71,	2.032769e-10,	3315.01,	3.671507e-09,	3314.64,	3.749847e-08
3503,	0.0727557,	2.54286e-06,	14,	3332.01,	8.33105e-09,	3332.23,	2.488479e-10,	3332.3,	3.918342e-12,	3332.38,	2.320563e-11,	3332.15,	2.042196e-10,	3332.45,	3.712128e-09,	3332.08,	3.631232e-08
3534,	0.0905053,	2.73359e-06,	14,	3349.45,	8.367277e-09,	3349.67,	2.479957e-10,	3349.74,	3.813302e-12,	3349.82,	2.255691e-11,	3349.6,	2.069555e-10,	3349.89,	3.698341e-09,	3349.52,	3.655613e-08
3565,	0.103598,	2.61915e-06,	14,	3366.89,	8.348619e-09,	3367.11,	2.46565e-10,	3367.19,	4.24109e-12,	3367.26,	2.297725e-11,	3367.04,	2.032201e-10,	3367.34,	3.681555e-09,	3366.96,	3.635055e-08
3596,	0.115357,	2.35213e-06,	14,	3384.33,	8.331009e-09,	3384.56,	2.495157e-10,	3384.63,	3.824087e-12,	3384.7,	2.222411e-11,	3384.48,	2.044717e-10,	3384.78,	3.661387e-09,	3384.41,	3.633125e-08
3627,	0.1267799,	2.6573e-06,	14,	3401.78,	8.346282e-09,	3402,	2.487214e-10,	3402.07,	4.07944e-12,	3402.15,	2.319558e-11,	3401.92,	2.032135e-10,	3402.22,	3.674211e-09,	3401.85,	3.628547e-08
3658,	0.138455,	2.504715e-06,	14,	3419.22,	8.345062e-09,	3419.44,	2.498629e-10,	3419.52,	3.773646e-12,	3419.59,	2.305227e-11,	3419.37,	2.045277e-10,	3419.66,	3.704305e-09,	3419.29,	3.658657e-08
3689,	0.1514902,	2.504715e-06,	14,	3436.66,	8.339354e-09,	3436.88,	2.468371e-10,	3436.96,	3.614747e-12,	3437.03,	2.257002e-11,	3436.81,	2.030921e-10,	3437.11,	3.690792e-09,	3436.73,	3.644305e-08
3720,	0.166019,	2.88617e-06,	14,	3454.1,	8.335352e-09,	3454.33,	2.485241e-10,	3454.4,	4.176782e-12,	3454.47,	2.25764e-11,	3454.25,	2.042774e-10,	3454.55,	3.679594e-09,	3454.18,	3.617041e-08
3751,	0.182206,	2.39028e-06,	14,	3471.55,	8.351718e-09,	3471.77,	2.457549e-10,	3471.84,	3.559072e-12,	3471.92,	2.268858e-11,	3471.69,	2.03286e-10,	3471.99,	3.642973e-09,	3471.62,	3.641887e-08
3779.26,	0.17771,	-0.0199965,	15,	3488.99,	3.082755e-09,	3489.21,	2.468905e-10,	3489.29,	3.964277e-12,	3489.36,	2.251515e-11,	3489.14,	2.048873e-10,	3489.43,	3.684832e-09,	3489.06,	3.659614e-08
3799.43,	0.0202483,	-0.0199975,	15,	3506.43,	2.716515e-09,	3506.65,	2.462261e-10,	3506.73,	3.785209e-12,	3506.8,	2.305447e-11,	3506.58,	2.035373e-10,	3506.88,	3.577973e-09,	3506.5,	3.69964e-08
3830.43,	0.0200381,	-0.0199975,	15,	3523.87,	2.63165e-09,	3524.1,	2.440723e-10,	3524.17,	3.879947e-12,	3524.24,	2.269268e-11,	3524.02,	2.064884e-10,	3524.32,	3.630257e-09,	3523.95,	3.70655e-08
3861.43,	0.0198853,	-0.0199973,	15,	3541.31,	2.61423e-09,	3541.54,	2.449888e-10,	3541.61,	4.071382e-12,	3541.69,	2.260622e-11,	3541.46,	2.032348e-10,	3541.76,	3.659161e-09,	3541.39,	3.625851e-08
3892.43,	0.01993881,	-0.0199968,	15,	3558.76,	2.596517e-09,	3558.98,	2.446582e-10,	3559.06,	3.979436e-12,	3559.13,	2.202598e-11,	3558.91,	2.024961e-10,	3559.2,	3.649911e-09,	3558.83,	3.714921e-08
3923.43,	0.0198624,	-0.0199976,	15,	3576.2,	2.596282e-09,	3576.42,	2.467566e-10,	3576.5,	3.979033e-12,	3576.57,	2.299694e-11,	3576.35,	2.023211e-10,	3576.65,	3.596622e-09,	3576.27,	3.721826e-08
3954.43,	0.0198853,	-0.0199978,	15,	3593.64,	2.597032e-09,	3593.87,	2.475966e-10,	3593.94,	3.820124e-12,	3594.02,	2.288783e-11,	3593.79,	2.063838e-10,	3594.09,	3.622893e-09,	3593.72,	3.616485e-08
3985.43,	0.0198433,	-0.0199974,	15,	3611.09,	2.587473e-09,	3611.31,	2.454424e-10,	3611.38,	3.718937e-12,	3611.46,	2.306802e-11,	3611.23,	2.022403e-10,	3611.53,	3.600909e-09,	3611.16,	3.633865e-08
4016.43,	0.019893,	-0.0199977,	15,	3628.53,	2.583948e-09,	3628.75,	2.482852e-10,	3628.83,	3.855568e-12,	3628.9,	2.299188e-11,	3628.68,	2.223396e-10,	3628.97,	3.622169e-09,	3628.6,	3.606295e-08
4047.43,	0.0198853,	-0.01999731,	15,	3645.97,	2.582168e-09,	3646.19,	2.458941e-10,	3646.27,	4.052561e-12,	3646.34,	2.318143e-11,	3646.12,	2.02628e-10,	3646.42,	3.650996e-09,	3646.04,	3.612099e-08
4078.43,	0.019828,	-0.0199974,	15,	3663.41,	2.584291e-09,	3663.64,	2.476333e-10,	3663.71,	4.062961e-12,	3663.79,	2.301843e-11,	3663.56,	2.042945e-10,	3663.86,	3.681186e-09,	3663.49,	3.747299e-08
4108,	0.073856,	3.19133e-06,	16,	3680.86,	2.575058e-09,	3681.08,	2.469501e-10,	3681.15,	3.935179e-12,	3681.23,	2.281588e-11,	3681,	2.042254e-10,	3681.3,	3.600361e-09,	3680.93,	3.607574e-08
4139,	0.0890917,	2.39028e-06,	16,	3698.3,	2.584629e-09,	3698.52,	2.664066e-10,	3698.6,	5.048208e-12,	3698.67,	2.30617e-11,	3698.45,	3.263545e-10,	3698.74,	3.661442e-09,	3698.37,	3.63449e-08
4170,	0.101004,	2.27584e-06,	16,	3715.74,	2.572737e-09,	3715.96,	2.455502e-10,	3716.04,	4.063705e-12,	3716.11,	2.213999e-11,	3715.89,	2.008692e-10,	3716.19,	3.658475e-09,	3715.82,	3.602566e-08
4201,	0.1118116,	1.77995e-06,	16,	3733.18,	2.57532e-09,	3733.41,	2.472852e-10,	3733.48,	3.853297e-12,	3733.56,	2.203546e-11,	3733.33,	2.033326e-10,	3733.63,	3.639764e-09,	3733.26,	3.594349e-08
4232,	0.122188,	2.54286e-06,	16,	3750.63,	2.566797e-09,	3750.85,	2.472171e-10,	3750.92,	3.777705e-12,	3751,	2.321422e-11,	3750.78,	2.065381e-10,	3751.07,	3.583161e-09,	3750.7,	3.624966e-08
4263,	0.1327741,	2.77173e-06,	16,	3768.07,	2.582742e-09,	3768.29,	2.417486e-10,	3768.37,	4.015265e-12,	3768.44,	2.318945e-11,	3768.22,	2.006311e-10,	3768.52,	3.616804e-09,	3768.14,	3.611142e-08
4294,	0.144086,	2.504715e-06,	16,	3785.51,	8.155085e-09,	3785.73,	2.467625e-10,	3785.81,	4.023911e-12,	3785.88,	2.171415e-11,	3785.66,	2.020627e-10,	3785.96,	3.678118e-09,	3785.58,	3.604435e-08
4325,	0.156728,	2.12326e-06,	16,	3802.95,	1.001604e-08,	3803.18,	2.475835e-10,	3803.25,	3.763193e-12,	3803.33,	2.324508e-11,	3803.1,	2.049643e-10,	3803.4,	3.687782e-09,	3803.03,	3.599185e-08
4356,	0.170649,	2.58101e-06,	16,	3820.39,	1.015854e-08,	3820.62,	2.449501e-10,	3820.69,	4.000547e-12,	3820.77,	2.275295e-11,	3820.54,	2.024652e-10,	3820.84,	3.655852e-09,	3820.47,	3.59093e-08
,	,	,	,	3837.84,	1.020189e-08,	3838.06,	2.463036e-10,	3838.14,	3.65187e-12,	3838.21,	2.31416e-11,	3837.99,	2.032102e-10,	3838.29,	3.700727e-09,	3837.91,	3.623219e-08
,	,	,	,	3855.28,	1.021379e-08,	3855.5,	2.457207e-10,	3855.58,	3.715898e-12,	3855.65,	2.276335e-11,	3855.43,	2.021054e-10,	3855.73,	3.662731e-09,	3855.36,	3.702547e-08
,	,	,	,	3872.72,	1.024501e-08,	3872.95,	2.552061e-10,	3873.02,	4.256279e-12,	3873.1,	2.333005e-11,	3872.87,	2.512725e-10,	3873.17,	3.690519e-09,	3872.8,	3.589793e-08
,	,	,	,	3890.16,	1.02686e-08,	3890.39,	2.465793e-10,	3890.46,	3.897585e-12,	3890.54,	2.24609e-11,	3890.31,	2.042417e-10,	3890.61,	3.663538e-09,	3890.24,	3.639583e-08
,	,	,	,	3907.61,	1.035048e-08,	3907.83,	2.486953e-10,	3907.91,	3.864807e-12,	3907.98,	2.320273e-11,	3907.76,	2.023917e-10,	3908.06,	3.726719e-09,	3907.68,	3.619732e-08
,	,	,	,	3925.05,	1.025616e-08,	3925.27,	2.472764e-10,	3925.35,	3.886483e-12,	3925.42,	2.269632e-11,	3925.2,	2.02894e-10,	3925.5,	3.61609e-09,	3925.125,	3.727655e-08
,	,	,	,	3942.49,	1.032666e-08,	3942.72,	2.454074e-10,	3942.79,	4.027457e-12,	3942.87,	2.278857e-11,	3942.64,	2.002608e-10,	3942.94,	3.660758e-09,	3942.57,	3.60329e-08
,	,	,	,	3959.94,	1.025717e-08,	3960.16,	2.452727e-10,	3960.23,	3.748004e-12,	3960.31,	2.23382e-11,	3960.09,	2.007044e-10,	3960.38,	3.671885e-09,	3960.01,	3.630313e-08
,	,	,	,	3977.38,	1.030343e-08,	3977.6,	2.456363e-10,	3977.68,	3.985626e-12,	3977.75,	2.220698e-11,	3977.53,	2.01278e-10,	3977.83,	3.692824e-09,	3977.45,	3.600791e-08
,	,	,	,	3994.82,	1.032708e-08,	3995.05,	2.467894e-10,	3995.12,	3.569436e-12,	3995.19,	2.28948e-11,	3994.97,	2.044363e-10,	3995.27,	3.697334e-09,	3994.9,	3.614512e-08
,	,	,	,	4012.26,	1.030546e-08,	4012.49,	2.447864e-10,	4012.56,	3.845157e-12,	4012.64,	2.231683e-11,	4012.41,	2.052469e-10,	4012.71,	3.714217e-09,	4012.34,	3.6065e-08
,	,	,	,	4029.71,	1.037805e-08,	4029.93,	2.4818e-10,	4030,	4.009489e-12,	4030.08,	2.239456e-11,	4029.86,	2.190477e-10,	4030.15,	3.709574e-09,	4029.78,	3.610697e-08
,	,	,	,	4047.15,	1.032941e-08,	4047.37,	2.469027e-10,	4047.45,	3.555306e-12,	4047.52,	2.313264e-11,	4047.3,	1.992819e-10,	4047.6,	3.651718e-09,	4047.22,	3.701455e-08
,	,	,	,	4064.59,	1.032132e-08,	4064.82,	2.475135e-10,	4064.89,	3.94735e-12,	4064.96,	2.291589e-11,	4064.74,	2.042467e-10,	4065.04,	3.684282e-09,	4064.67,	3.611246e-08
,	,	,	,	4082.03,	4.779067e-09,	4082.26,	2.452785e-10,	4082.33,	3.546576e-12,	4082.4,	2.245524e-11,	4082.18,	1.968436e-10,	4082.48,	3.625142e-09,	4082.11,	3.61476e-08
,	,	,	,	4099.48,	2.863749e-09,	4099.7,	2.406854e-10,	4099.77,	3.782154e-12,	4099.85,	2.230167e-11,	4099.625,	1.959115e-10,	4099.92,	3.651935e-09,	4099.55,	3.69455e-08
,	,	,	,	4116.92,	2.701067e-09,	4117.14,	2.4208e-10,	4117.22,	3.725644e-12,	4117.29,	2.223707e-11,	4117.07,	2.117495e-10,	4117.37,	3.643238e-09,	4116.99,	3.619069e-08
,	,	,	,	4134.36,	2.658702e-09,	4134.58,	2.417767e-10,	4134.66,	3.584634e-12,	4134.73,	2.244801e-11,	4134.51,	1.915686e-10,	4134.81,	3.618344e-09,	4134.43,	3.6217e-08
,	,	,	,	4151.8,	2.619388e-09,	4152.03,	2.427056e-10,	4152.1,	3.485124e-12,	4152.18,	2.22499e-11,	4151.95,	1.895443e-10,	4152.25,	3.664765e-09,	4151.88,	3.607374e-08
,	,	,	,	4169.25,	2.626089e-09,	4169.47,	2.373974e-10,	4169.54,	3.384935e-12,	4169.62,	2.207307e-11,	4169.39,	1.889264e-10,	4169.69,	3.58995e-09,	4169.32,	3.595419e-08
,	,	,	,	4186.69,	2.618754e-09,	4186.91,	2.381705e-10,	4186.99,	3.762633e-12,	4187.06,	2.245456e-11,	4186.84,	1.958244e-10,	4187.13,	3.661714e-09,	4186.76,	3.597594e-08
,	,	,	,	4204.13,	2.610449e-09,	4204.35,	2.388903e-10,	4204.43,	3.595251e-12,	4204.5,	2.213884e-11,	4204.28,	1.911603e-10,	4204.58,	3.645505e-09,	4204.2,	3.581786e-08
,	,	,	,	4221.57,	2.604302e-09,	4221.8,	2.391776e-10,	4221.87,	3.802468e-12,	4221.95,	2.247063e-11,	4221.72,	1.900875e-10,	4222.02,	3.601201e-09,	4221.65,	3.604501e-08
,	,	,	,	4239.02,	2.596287e-09,	4239.24,	2.416461e-10,	4239.31,	3.821063e-12,	4239.39,	2.187604e-11,	4239.16,	1.962194e-10,	4239.46,	3.60876e-09,	4239.09,	3.614509e-08
,	,	,	,	4256.46,	2.599947e-09,	4256.68,	2.418794e-10,	4256.76,	3.544233e-12,	4256.83,	2.190609e-11,	4256.61,	1.905463e-10,	4256.91,	3.589309e-09,	4256.53,	3.586079e-08
,	,	,	,	4273.9,	2.588616e-09,	4274.125,	2.373098e-10,	4274.2,	3.469752e-12,	4274.27,	2.246346e-11,	4274.05,	1.903219e-10,	4274.35,	3.602511e-09,	4273.98,	3.699273e-08
,	,	,	,	4291.35,	2.580945e-09,	4291.57,	2.385969e-10,	4291.64,	3.578559e-12,	4291.72,	2.176286e-11,	4291.49,	1.913712e-10,	4291.79,	3.577926e-09,	4291.42,	3.678177e-08
,	,	,	,	4308.79,	2.598623e-09,	4309.01,	2.398404e-10,	4309.09,	3.618228e-12,	4309.16,	2.227476e-11,	4308.94,	1.924498e-10,	4309.23,	3.623903e-09,	4308.86,	3.610821e-08
,	,	,	,	4326.23,	2.594516e-09,	4326.45,	2.392309e-10,	4326.53,	3.441712e-12,	4326.6,	2.19416e-11,	4326.38,	1.917767e-10,	4326.68,	3.606984e-09,	4326.3,	3.614391e-08
,	,	,	,	4343.67,	2.583734e-09,	4343.9,	2.398726e-10,	4343.97,	3.371013e-12,	4344.05,	2.178996e-11,	4343.82,	1.92366e-10,	4344.12,	3.597428e-09,	4343.75,	3.588704e-08
,	,	,	,	4361.11,	2.58746e-09,	4361.34,	2.368099e-10,	4361.41,	3.594617e-12,	4361.49,	2.124623e-11,	4361.26,	1.885172e-10,	4361.56,	3.609573e-09,	4361.19,	3.618583e-08
,	,	,	,	4378.56,	2.592287e-09,	4378.78,	2.407052e-10,	4378.86,	3.558218e-12,	4378.93,	2.245384e-11,	4378.71,	1.939645e-10,	4379,	3.622223e-09,	4378.63,	3.602363e-08
,	,	,	,	4396,	2.594867e-09,	4396.22,	2.411311e-10,	4396.3,	3.741514e-12,	4396.37,	2.244339e-11,	4396.15,	1.952866e-10,	4396.44,	3.585974e-09,	4396.07,	3.579311e-08
,	,	,	,	4413.44,	2.579912e-09,	4413.67,	2.381368e-10,	4413.74,	3.539938e-12,	4413.82,	2.213687e-11,	4413.59,	1.868691e-10,	4413.89,	3.589589e-09,	4413.52,	3.555079e-08
,	,	,	,	4430.88,	2.591438e-09,	4431.11,	2.380091e-10,	4431.18,	3.598928e-12,	4431.26,	2.15974e-11,	4431.03,	1.903714e-10,	4431.33,	3.605044e-09,	4430.96,	3.601717e-08
,	,	,	,	4448.33,	2.588655e-09,	4448.55,	2.376054e-10,	4448.62,	3.63894e-12,	4448.7,	2.143145e-11,	4448.47,	1.914286e-10,	4448.77,	3.626381e-09,	4448.4,	3.567891e-08
,	,	,	,	4465.77,	2.575663e-09,	4465.99,	2.387537e-10,	4466.07,	3.545569e-12,	4466.14,	2.237066e-11,	4465.92,	1.925121e-10,	4466.22,	3.589218e-09,	4465.84,	3.592885e-08
,	,	,	,	4483.21,	2.588356e-09,	4483.43,	2.398994e-10,	4483.51,	3.841026e-12,	4483.58,	2.213189e-11,	4483.36,	1.899007e-10,	4483.66,	3.614827e-09,	4483.29,	3.682547e-08
,	,	,	,	4500.65,	2.575344e-09,	4500.88,	2.397757e-10,	4500.95,	3.519374e-12,	4501.03,	2.168877e-11,	4500.8,	1.939337e-10,	4501.1,	3.609288e-09,	4500.73,	3.672717e-08
,	,	,	,	4518.1,	2.596348e-09,	4518.32,	2.42949e-10,	4518.39,	3.596366e-12,	4518.47,	2.244281e-11,	4518.25,	1.927418e-10,	4518.54,	3.6312e-09,	4518.17,	3.580931e-08
,	,	,	,	4535.54,	2.578183e-09,	4535.76,	2.385867e-10,	4535.84,	3.600785e-12,	4535.91,	2.192554e-11,	4535.69,	1.910154e-10,	4535.99,	3.634104e-09,	4535.61,	3.576272e-08
,	,	,	,	4552.98,	2.584724e-09,	4553.2,	2.378895e-10,	4553.28,	3.399855e-12,	4553.35,	2.139078e-11,	4553.13,	1.910768e-10,	4553.43,	3.5616e-09,	4553.06,	3.550675e-08
,	,	,	,	4570.42,	2.59131e-09,	4570.65,	2.391896e-10,	4570.72,	3.644325e-12,	4570.8,	2.218519e-11,	4570.57,	1.918252e-10,	4570.87,	3.57503e-09,	4570.5,	3.590527e-08
,	,	,	,	4587.87,	2.589018e-09,	4588.09,	2.406736e-10,	4588.16,	3.983796e-12,	4588.24,	2.155995e-11,	4588.02,	1.936486e-10,	4588.31,	3.572773e-09,	4587.94,	3.576929e-08
,	,	,	,	4589.56,	2.584291e-09,	4589.78,	2.378499e-10,	4589.85,	3.948088e-12,	4589.93,	2.185301e-11,	4589.7,	1.926607e-10,	4590,	3.622767e-09,	4589.63,	3.571458e-08