File: Quantification/development/HER_repeatability_single_day/HERonPt_RnD1_1.csv
ixdat version = 0.2.3
name = 2022-04-26 12_31_02 HER_repetition_1 AND 2022-04-26 12_31_02 HER_repetition_1_01_01_CVA_DUSB0_C01.mpt AND 2022-04-26 12_31_02 HER_repetition_1_01_02_CP_DUSB0_C01.mpt
technique = EC-MS
tstamp = 1650969062.0
backend_name = BackendBase(none, address=none)
id = 4
timecol 'time/s' for: 'Ewe/V' and 'raw_current' and 'selector'
timecol 'C3M32 time [s]' for: 'M32'
timecol 'C5M44 time [s]' for: 'M44'
timecol 'C6M18 time [s]' for: 'M18'
timecol 'C4M40 time [s]' for: 'M40'
timecol 'C0M2 time [s]' for: 'M2'
timecol 'C1M4 time [s]' for: 'M4'
timecol 'C2M28 time [s]' for: 'M28'
aliases = {"M2": ["M2 [A]"], "M4": ["M4 [A]"], "M28": ["M28 [A]"], "M32": ["M32 [A]"], "M40": ["M40 [A]"], "M44": ["M44 [A]"], "M18": ["M18 [A]"], "t": ["time/s"], "raw_potential": ["Ewe/V"], "raw_current": ["<I>/mA", "I/mA"], "cycle": ["cycle number"]}
N_header_lines = 18

time/s,	Ewe/V,	raw_current,	selector,	C3M32 time [s],	M32,	C5M44 time [s],	M44,	C6M18 time [s],	M18,	C4M40 time [s],	M40,	C0M2 time [s],	M2,	C1M4 time [s],	M4,	C2M28 time [s],	M28
286.0,	0.944562,	0.00012622,	0,	0.745576,	2.17332e-08,	0.89472,	8.293296e-11,	0.969792,	1.631994e-09,	0.820648,	8.704558e-10,	0.52236,	1.663969e-09,	0.596432,	1.046065e-11,	0.671504,	8.680396e-08
302.769,	1.07959,	0.00142173,	0,	19.3132,	2.161054e-08,	19.4622,	8.026819e-11,	19.5372,	1.580766e-09,	19.3882,	8.821154e-10,	19.0902,	1.636874e-09,	19.1642,	8.911939e-12,	19.2392,	8.646564e-08
312.664,	1.277514,	0.00559473,	0,	37.8814,	1.910543e-08,	38.0304,	1.258797e-10,	38.1054,	2.243198e-09,	37.9564,	7.869764e-10,	37.6584,	1.709306e-09,	37.7324,	3.081688e-09,	37.8074,	7.435119e-08
322.558,	1.47541,	0.0103287,	0,	56.4486,	2.177586e-08,	56.5976,	8.788305e-11,	56.6726,	2.138425e-09,	56.5236,	8.911046e-10,	56.2256,	1.712616e-09,	56.2996,	8.607005e-12,	56.3746,	8.693501e-08
332.453,	1.67328,	0.0627504,	0,	75.0166,	2.189749e-08,	75.1656,	8.355713e-11,	75.2406,	1.743005e-09,	75.0916,	8.847935e-10,	74.7936,	1.682571e-09,	74.8676,	8.630131e-12,	74.9426,	8.697494e-08
341.775,	1.54168,	0.00136981,	0,	93.5856,	2.146316e-08,	93.7346,	8.797893e-11,	93.8086,	1.595746e-09,	93.6596,	8.778896e-10,	93.3616,	1.662409e-09,	93.4366,	3.422279e-10,	93.5106,	8.563619e-08
351.67,	1.34375,	-0.000130119,	0,	112.153,	2.164815e-08,	112.302,	1.025617e-10,	112.376,	1.513281e-09,	112.227,	8.815313e-10,	111.929,	1.651281e-09,	112.004,	2.833672e-10,	112.078,	8.581442e-08
361.565,	1.14584,	-0.000686932,	0,	130.72,	2.150616e-08,	130.869,	9.360483e-11,	130.943,	1.474128e-09,	130.794,	8.746864e-10,	130.496,	1.63743e-09,	130.571,	4.674566e-10,	130.645,	8.422826e-08
371.46,	0.947957,	-0.00229009,	0,	149.289,	3.939136e-09,	149.4375,	8.451537e-11,	149.511,	3.148957e-09,	149.362,	1.703589e-10,	149.065,	1.948819e-09,	149.139,	3.220243e-08,	149.214,	9.075641e-09
381.355,	0.7500484,	-0.0154311,	0,	167.855,	1.608885e-09,	168.004,	6.862615e-11,	168.079,	3.786095e-09,	167.93,	6.048428e-11,	167.632,	2.042584e-09,	167.707,	3.647614e-08,	167.78,	4.584694e-09
391.25,	0.5521698,	-0.00337692,	0,	186.424,	1.696828e-09,	186.573,	5.20599e-11,	186.648,	4.004211e-09,	186.499,	6.254356e-11,	186.201,	2.016981e-09,	186.275,	3.508166e-08,	186.35,	6.508211e-09
401.144,	0.354277,	-0.00303017,	0,	204.991,	1.26809e-09,	205.14,	4.685687e-11,	205.215,	4.111575e-09,	205.066,	5.453119e-11,	204.768,	2.090151e-09,	204.842,	3.672462e-08,	204.917,	3.175492e-09
411.039,	0.156331,	-0.00953394,	0,	223.559,	1.05575e-09,	223.708,	4.110347e-11,	223.783,	4.14206e-09,	223.634,	3.679551e-11,	223.336,	2.097193e-09,	223.41,	3.670954e-08,	223.485,	2.862159e-09
420.567,	0.0560378,	0.00957622,	0,	242.127,	1.014234e-09,	242.276,	3.914866e-11,	242.351,	4.145664e-09,	242.202,	3.3718e-11,	241.904,	2.092022e-09,	241.978,	3.679013e-08,	242.053,	2.733263e-09
430.462,	0.253915,	0.0047213,	0,	260.695,	1.078676e-09,	260.844,	3.717026e-11,	260.919,	4.179451e-09,	260.77,	3.638803e-11,	260.472,	2.099523e-09,	260.546,	3.661312e-08,	260.621,	3.24403e-09
440.357,	0.451737,	-0.000634238,	0,	279.263,	8.747351e-10,	279.412,	3.523861e-11,	279.486,	4.165165e-09,	279.337,	2.842553e-11,	279.039,	2.089301e-09,	279.114,	3.775311e-08,	279.188,	2.189248e-09
450.251,	0.649615,	-0.000400242,	0,	297.831,	8.19428e-10,	297.98,	3.455182e-11,	298.054,	4.197853e-09,	297.905,	2.584235e-11,	297.607,	2.07935e-09,	297.682,	3.728552e-08,	297.756,	1.93067e-09
460.146,	0.847497,	0.00119185,	0,	316.4,	7.799e-10,	316.549,	4.572091e-11,	316.623,	4.085537e-09,	316.474,	2.313256e-11,	316.176,	2.064584e-09,	316.251,	3.736592e-08,	316.325,	1.697524e-09
469.666,	1.0379,	0.00448722,	1,	334.966,	2.20024e-09,	335.115,	8.272691e-11,	335.189,	4.210262e-09,	335.04,	2.255456e-11,	334.742,	2.114785e-09,	334.817,	3.646766e-08,	334.891,	1.657092e-09
479.561,	1.23583,	0.00746215,	1,	353.534,	8.931255e-10,	353.683,	6.226802e-11,	353.757,	4.141658e-09,	353.608,	2.672236e-11,	353.31,	2.113206e-09,	353.385,	3.794227e-08,	353.459,	2.313237e-09
489.456,	1.43369,	0.0110501,	1,	372.102,	7.709074e-10,	372.251,	5.052385e-11,	372.326,	4.178711e-09,	372.177,	2.919745e-11,	371.879,	2.040747e-09,	371.953,	3.714167e-08,	372.028,	1.302761e-09
499.351,	1.6316,	0.0313582,	1,	390.67,	6.053227e-10,	390.819,	4.726443e-11,	390.894,	4.041458e-09,	390.744,	1.809696e-11,	390.447,	2.067242e-09,	390.52,	3.70758e-08,	390.595,	1.207007e-09
508.958,	1.57763,	0.00283561,	1,	409.238,	6.297934e-10,	409.387,	4.045557e-11,	409.462,	4.072804e-09,	409.313,	1.96525e-11,	409.015,	2.073457e-09,	409.089,	3.685669e-08,	409.164,	1.525841e-09
518.853,	1.37972,	1.7357e-05,	1,	427.806,	5.732778e-10,	427.955,	3.642832e-11,	428.03,	4.024802e-09,	427.881,	1.829805e-11,	427.583,	2.125156e-09,	427.657,	3.679976e-08,	427.732,	1.174247e-09
528.747,	1.18182,	-0.000582657,	1,	446.373,	5.635157e-10,	446.522,	3.444533e-11,	446.597,	4.113323e-09,	446.448,	1.720383e-11,	446.15,	2.098655e-09,	446.224,	3.723046e-08,	446.299,	1.112047e-09
538.642,	0.983931,	-0.00191265,	1,	464.942,	5.816432e-10,	465.091,	4.099952e-11,	465.165,	3.980216e-09,	465.016,	1.754408e-11,	464.718,	2.089246e-09,	464.793,	3.700607e-08,	464.867,	1.230884e-09
548.537,	0.786033,	-0.0117494,	1,	483.51,	6.371604e-10,	483.659,	6.204477e-11,	483.733,	4.026734e-09,	483.584,	1.881002e-11,	483.286,	2.11417e-09,	483.361,	3.747667e-08,	483.435,	1.500928e-09
558.432,	0.588135,	-0.0034766,	1,	502.078,	1.480157e-09,	502.227,	9.956964e-11,	502.301,	4.125447e-09,	502.152,	1.511733e-11,	501.854,	2.119107e-09,	501.929,	3.683236e-08,	502.003,	9.303055e-10
568.327,	0.390262,	-0.00216278,	1,	520.646,	6.126207e-10,	520.795,	7.373867e-11,	520.869,	4.011876e-09,	520.72,	1.45666e-11,	520.422,	2.102056e-09,	520.497,	3.718585e-08,	520.571,	8.796884e-10
578.221,	0.192284,	-0.0066579,	1,	539.213,	6.642024e-10,	539.362,	5.559509e-11,	539.436,	4.029143e-09,	539.287,	1.959742e-11,	538.989,	2.15273e-09,	539.064,	3.709161e-08,	539.138,	1.682458e-09
587.749,	0.020104,	0.068351,	1,	557.781,	4.972126e-10,	557.93,	5.152338e-11,	558.005,	4.005507e-09,	557.856,	1.377327e-11,	557.558,	2.126465e-09,	557.632,	3.749491e-08,	557.707,	7.375144e-10
597.644,	0.217929,	0.00534382,	1,	576.349,	4.867279e-10,	576.498,	4.218838e-11,	576.573,	4.018793e-09,	576.424,	1.310569e-11,	576.126,	2.142178e-09,	576.2,	3.75234e-08,	576.275,	7.192185e-10
607.539,	0.415729,	-0.0005089,	1,	594.916,	4.962437e-10,	595.065,	3.736406e-11,	595.14,	4.043391e-09,	594.991,	1.460919e-11,	594.693,	2.220655e-09,	594.767,	3.7212e-08,	594.842,	1.059272e-09
617.434,	0.613638,	-0.000359792,	1,	613.484,	4.843e-10,	613.633,	3.319008e-11,	613.708,	4.029122e-09,	613.559,	1.345997e-11,	613.261,	2.156348e-09,	613.335,	3.722734e-08,	613.41,	7.888291e-10
627.329,	0.811514,	0.000748873,	1,	632.051,	4.79813e-10,	632.2,	4.181223e-11,	632.275,	4.025123e-09,	632.126,	1.259981e-11,	631.828,	2.167553e-09,	631.902,	3.735167e-08,	631.977,	6.77515e-10
636.849,	1.001919,	0.0044213,	2,	650.62,	5.018527e-10,	650.769,	5.815563e-11,	650.843,	3.956676e-09,	650.694,	1.357178e-11,	650.396,	2.166909e-09,	650.471,	3.717272e-08,	650.545,	7.842085e-10
646.743,	1.19983,	0.00701123,	2,	669.188,	9.95403e-10,	669.337,	8.632638e-11,	669.411,	3.969546e-09,	669.262,	1.187582e-11,	668.964,	2.145324e-09,	669.039,	3.685404e-08,	669.113,	6.426862e-10
656.638,	1.397729,	0.0100938,	2,	687.757,	6.960307e-10,	687.906,	7.193897e-11,	687.98,	4.011536e-09,	687.831,	1.721573e-11,	687.533,	2.137478e-09,	687.608,	3.713262e-08,	687.682,	1.362939e-09
666.533,	1.59563,	0.0223051,	2,	706.324,	5.308428e-10,	706.473,	5.206256e-11,	706.547,	4.03286e-09,	706.398,	1.368194e-11,	706.1,	2.141873e-09,	706.175,	3.713832e-08,	706.249,	8.773328e-10
676.14,	1.61362,	0.00650827,	2,	724.892,	5.436673e-10,	725.041,	5.06751e-11,	725.115,	3.960768e-09,	724.966,	1.566547e-11,	724.668,	2.138053e-09,	724.743,	3.759304e-08,	724.817,	1.310431e-09
686.035,	1.41571,	4.13076e-05,	2,	743.459,	4.509761e-10,	743.608,	4.160992e-11,	743.683,	4.009899e-09,	743.534,	1.166019e-11,	743.236,	2.186155e-09,	743.31,	3.76099e-08,	743.385,	6.036471e-10
695.93,	1.21781,	-0.000543145,	2,	762.027,	4.615958e-10,	762.176,	3.585097e-11,	762.251,	3.98313e-09,	762.102,	1.216698e-11,	761.804,	2.342999e-09,	761.878,	3.731112e-08,	761.953,	7.115662e-10
705.825,	1.01991,	-0.00161207,	2,	780.596,	5.155674e-10,	780.745,	3.435736e-11,	780.82,	3.953469e-09,	780.671,	1.576806e-11,	780.373,	2.168711e-09,	780.447,	3.758572e-08,	780.522,	1.39317e-09
715.719,	0.821982,	-0.00789766,	2,	799.163,	4.401718e-10,	799.312,	3.894729e-11,	799.387,	3.971022e-09,	799.238,	1.159401e-11,	798.94,	2.193785e-09,	799.014,	3.787678e-08,	799.089,	5.644018e-10
725.614,	0.6241191,	-0.00574603,	2,	817.731,	4.579779e-10,	817.88,	5.275439e-11,	817.955,	3.942576e-09,	817.806,	1.138412e-11,	817.508,	2.209895e-09,	817.582,	3.724411e-08,	817.657,	5.75087e-10
735.509,	0.426227,	-0.00186525,	2,	836.299,	7.893664e-10,	836.448,	7.594986e-11,	836.522,	3.957196e-09,	836.373,	1.38768e-11,	836.075,	2.164683e-09,	836.15,	3.681474e-08,	836.224,	8.799833e-10
745.404,	0.228279,	-0.00646705,	2,	854.866,	7.204831e-10,	855.015,	6.728865e-11,	855.089,	3.929181e-09,	854.94,	1.406776e-11,	854.642,	2.123734e-09,	854.717,	3.754208e-08,	854.791,	9.962146e-10
755.299,	0.0304349,	-0.0449958,	2,	873.434,	4.873433e-10,	873.583,	5.029988e-11,	873.657,	3.968712e-09,	873.508,	1.178761e-11,	873.21,	2.191097e-09,	873.285,	3.801505e-08,	873.359,	5.887206e-10
764.827,	0.181989,	0.00591104,	2,	892.002,	6.303262e-10,	892.151,	4.835457e-11,	892.225,	3.962322e-09,	892.076,	2.023655e-11,	891.778,	2.202541e-09,	891.853,	3.807687e-08,	891.927,	1.581433e-09
774.721,	0.379758,	-3.11212e-05,	2,	910.57,	4.728596e-10,	910.719,	4.013494e-11,	910.793,	3.934275e-09,	910.644,	1.323212e-11,	910.346,	2.182394e-09,	910.421,	3.686898e-08,	910.495,	9.876249e-10
784.616,	0.577643,	-0.000379726,	2,	929.138,	6.988475e-10,	929.287,	3.729932e-11,	929.362,	4.06714e-09,	929.213,	2.634587e-11,	928.915,	2.708622e-09,	928.989,	3.754203e-08,	929.064,	3.064838e-09
794.511,	0.775541,	0.000410979,	2,	947.706,	4.600103e-10,	947.855,	3.388543e-11,	947.93,	3.956035e-09,	947.781,	1.301791e-11,	947.483,	2.202933e-09,	947.557,	3.73615e-08,	947.632,	8.815891e-10
804.031,	0.965918,	0.0043818,	3,	966.274,	4.869203e-10,	966.423,	3.689141e-11,	966.498,	4.000596e-09,	966.349,	1.378378e-11,	966.051,	2.214025e-09,	966.125,	3.724545e-08,	966.2,	1.002776e-09
813.926,	1.163811,	0.00665284,	3,	984.842,	4.477187e-10,	984.991,	4.812382e-11,	985.066,	3.928752e-09,	984.917,	1.078095e-11,	984.619,	2.229497e-09,	984.693,	3.770551e-08,	984.768,	5.731487e-10
823.821,	1.36175,	0.00924333,	3,	1003.41,	7.902109e-10,	1003.56,	7.091246e-11,	1003.63,	3.983167e-09,	1003.48,	2.046876e-11,	1003.19,	2.269686e-09,	1003.26,	3.718257e-08,	1003.34,	1.949646e-09
833.715,	1.55967,	0.0165328,	3,	1021.98,	7.940851e-10,	1022.13,	6.231114e-11,	1022.2,	3.973097e-09,	1022.05,	1.073885e-11,	1021.75,	2.158019e-09,	1021.83,	3.702024e-08,	1021.9,	5.964498e-10
843.322,	1.64958,	0.0190581,	3,	1040.55,	4.690076e-10,	1040.69,	4.75918e-11,	1040.77,	3.962495e-09,	1040.62,	1.083598e-11,	1040.32,	2.216532e-09,	1040.4,	3.760665e-08,	1040.47,	5.453655e-10
853.217,	1.45167,	8.14066e-05,	3,	1059.11,	6.736569e-10,	1059.26,	4.526617e-11,	1059.34,	3.955732e-09,	1059.19,	2.13393e-11,	1058.89,	2.2803e-09,	1058.96,	3.733754e-08,	1059.04,	2.220243e-09
863.112,	1.25381,	-0.000515279,	3,	1077.68,	4.492222e-10,	1077.83,	3.913894e-11,	1077.9,	3.918844e-09,	1077.76,	1.184321e-11,	1077.46,	2.215648e-09,	1077.53,	3.800049e-08,	1077.61,	7.506346e-10
873.007,	1.05588,	-0.00136462,	3,	1096.25,	4.161107e-10,	1096.4,	3.566909e-11,	1096.47,	4.005789e-09,	1096.32,	1.070461e-11,	1096.03,	3.767253e-09,	1096.1,	3.759764e-08,	1096.17,	5.619862e-10
882.902,	0.857982,	-0.00565763,	3,	1114.82,	4.500017e-10,	1114.96,	3.250552e-11,	1115.04,	3.924652e-09,	1114.89,	1.332708e-11,	1114.59,	2.233399e-09,	1114.67,	3.698867e-08,	1114.74,	9.455182e-10
892.797,	0.6601,	-0.0115104,	3,	1133.38,	4.748844e-10,	1133.53,	3.494412e-11,	1133.61,	3.946231e-09,	1133.46,	1.396268e-11,	1133.16,	2.206119e-09,	1133.24,	3.668769e-08,	1133.31,	1.182015e-09
902.691,	0.462208,	-0.00179747,	3,	1151.95,	6.081707e-10,	1152.1,	4.60932e-11,	1152.18,	3.953219e-09,	1152.03,	1.886137e-11,	1151.73,	2.21733e-09,	1151.8,	3.692958e-08,	1151.88,	1.874297e-09
912.586,	0.264275,	-0.00595306,	3,	1170.52,	5.122758e-10,	1170.67,	5.844695e-11,	1170.74,	3.915677e-09,	1170.6,	1.060627e-11,	1170.3,	2.231902e-09,	1170.37,	3.728451e-08,	1170.45,	6.060832e-10
922.481,	0.0664017,	-0.0145667,	3,	1189.09,	1.129559e-09,	1189.24,	6.229769e-11,	1189.31,	3.996028e-09,	1189.16,	2.229151e-11,	1188.86,	2.149711e-09,	1188.94,	3.661329e-08,	1189.01,	5.825181e-10
932.009,	0.146018,	0.00690983,	3,	1207.66,	4.884581e-10,	1207.81,	4.448934e-11,	1207.88,	3.943567e-09,	1207.73,	1.11414e-11,	1207.43,	2.205439e-09,	1207.51,	3.803321e-08,	1207.58,	6.750951e-10
941.904,	0.343808,	0.00084128,	3,	1226.22,	4.511465e-10,	1226.37,	4.076596e-11,	1226.45,	3.972631e-09,	1226.3,	1.138585e-11,	1226,	2.229438e-09,	1226.08,	3.824428e-08,	1226.15,	6.278953e-10
951.799,	0.541663,	-0.000281316,	3,	1244.79,	4.101257e-10,	1244.94,	3.848333e-11,	1245.01,	3.932458e-09,	1244.87,	9.435214e-12,	1244.57,	2.261887e-09,	1244.64,	3.751668e-08,	1244.72,	4.938595e-10
961.693,	0.739548,	0.000348561,	3,	1263.36,	4.160996e-10,	1263.51,	3.424011e-11,	1263.58,	3.988872e-09,	1263.43,	1.068159e-11,	1263.14,	8.69852e-09,	1263.21,	3.756918e-08,	1263.29,	6.014464e-10
971.588,	0.937495,	0.0044355,	3,	1281.93,	4.009645e-10,	1282.08,	3.121182e-11,	1282.15,	3.885248e-09,	1282,	9.721349e-12,	1281.7,	2.285434e-09,	1281.78,	3.760977e-08,	1281.85,	4.846084e-10
981.108,	1.12783,	0.00636981,	4,	1300.49,	4.097382e-10,	1300.64,	3.310472e-11,	1300.72,	3.954514e-09,	1300.57,	1.079706e-11,	1300.27,	2.270635e-09,	1300.35,	3.773119e-08,	1300.42,	5.746091e-10
991.003,	1.32577,	0.00857582,	4,	1319.06,	4.183609e-10,	1319.21,	3.60214e-11,	1319.29,	3.901934e-09,	1319.14,	1.00661e-11,	1318.84,	2.274588e-09,	1318.91,	3.77264e-08,	1318.99,	5.370525e-10
1000.9,	1.52368,	0.0128277,	4,	1337.63,	4.193796e-10,	1337.78,	3.496411e-11,	1337.86,	3.871658e-09,	1337.71,	9.766896e-12,	1337.41,	2.27515e-09,	1337.48,	3.862622e-08,	1337.56,	5.119775e-10
1010.5,	1.68562,	0.0772102,	4,	1356.2,	4.239164e-10,	1356.35,	3.309253e-11,	1356.42,	3.910056e-09,	1356.27,	9.992223e-12,	1355.97,	2.263024e-09,	1356.05,	3.767507e-08,	1356.12,	5.660251e-10
1020.4,	1.48768,	0.000181476,	4,	1374.77,	4.903138e-10,	1374.91,	3.17032e-11,	1374.99,	3.905901e-09,	1374.84,	1.291775e-11,	1374.54,	2.223355e-09,	1374.62,	3.781853e-08,	1374.69,	1.097601e-09
1030.29,	1.28978,	-0.000493006,	4,	1393.33,	4.057741e-10,	1393.48,	3.076499e-11,	1393.56,	3.915863e-09,	1393.41,	9.046249e-12,	1393.11,	2.285224e-09,	1393.18,	3.78235e-08,	1393.26,	4.625652e-10
1040.19,	1.091873,	-0.00116785,	4,	1411.9,	5.926594e-10,	1412.05,	3.079181e-11,	1412.125,	3.879821e-09,	1411.98,	1.766766e-11,	1411.68,	2.299057e-09,	1411.75,	3.679055e-08,	1411.83,	1.878515e-09
1050.08,	0.893957,	-0.00424597,	4,	1430.47,	4.061696e-10,	1430.62,	2.884837e-11,	1430.69,	3.932655e-09,	1430.54,	9.713144e-12,	1430.25,	2.28144e-09,	1430.32,	3.785165e-08,	1430.39,	4.641564e-10
1059.98,	0.696088,	-0.0261085,	4,	1449.04,	4.55158e-10,	1449.19,	2.988586e-11,	1449.26,	3.913604e-09,	1449.11,	1.117619e-11,	1448.82,	2.252286e-09,	1448.89,	3.744978e-08,	1448.96,	8.195982e-10
1069.87,	0.498183,	-0.00178451,	4,	1467.61,	4.066043e-10,	1467.76,	2.954414e-11,	1467.83,	3.935358e-09,	1467.68,	9.167765e-12,	1467.38,	2.308118e-09,	1467.46,	3.79301e-08,	1467.53,	4.682985e-10
1079.77,	0.300261,	-0.00407476,	4,	1486.17,	5.096187e-10,	1486.32,	2.937633e-11,	1486.4,	3.87422e-09,	1486.25,	1.449392e-11,	1485.95,	2.238672e-09,	1486.02,	3.696155e-08,	1486.1,	1.285132e-09
1089.66,	0.102378,	-0.0133616,	4,	1504.74,	4.094519e-10,	1504.89,	2.896978e-11,	1504.97,	3.924625e-09,	1504.82,	9.487817e-12,	1504.52,	2.292466e-09,	1504.59,	3.748661e-08,	1504.67,	4.985518e-10
1099.19,	0.110053,	0.00864757,	4,	1523.31,	4.021546e-10,	1523.46,	2.849533e-11,	1523.53,	3.94225e-09,	1523.38,	8.808448e-12,	1523.09,	2.284462e-09,	1523.16,	3.751363e-08,	1523.23,	4.467467e-10
1109.09,	0.307904,	0.0027648,	4,	1541.88,	4.468099e-10,	1542.03,	2.935386e-11,	1542.1,	3.891391e-09,	1541.95,	1.104663e-11,	1541.65,	2.267021e-09,	1541.73,	3.794228e-08,	1541.8,	8.033374e-10
1118.98,	0.505676,	-0.000292799,	4,	1560.44,	3.969993e-10,	1560.59,	2.909079e-11,	1560.67,	3.875012e-09,	1560.52,	8.255044e-12,	1560.22,	2.279511e-09,	1560.3,	3.7413e-08,	1560.37,	4.402371e-10
1128.88,	0.7035684,	0.000324533,	4,	1579.01,	4.134213e-10,	1579.16,	2.842336e-11,	1579.24,	3.870147e-09,	1579.09,	8.975493e-12,	1578.79,	2.306447e-09,	1578.87,	3.842976e-08,	1578.94,	5.181179e-10
1138.77,	0.9015038,	0.00429751,	4,	1597.58,	3.95853e-10,	1597.73,	2.805984e-11,	1597.8,	3.875814e-09,	1597.65,	9.02213e-12,	1597.36,	2.302672e-09,	1597.43,	3.780925e-08,	1597.51,	4.541471e-10
1148.29,	1.091886,	0.00611915,	5,	1616.15,	3.911341e-10,	1616.3,	2.863749e-11,	1616.37,	3.912672e-09,	1616.22,	8.805574e-12,	1615.92,	2.285867e-09,	1616.0,	3.746444e-08,	1616.07,	4.333341e-10
1158.19,	1.28977,	0.00798952,	5,	1634.72,	4.363905e-10,	1634.87,	2.769653e-11,	1634.94,	3.814546e-09,	1634.79,	1.185729e-11,	1634.49,	2.281755e-09,	1634.57,	3.717702e-08,	1634.64,	7.810615e-10
1168.08,	1.48767,	0.0104476,	5,	1653.28,	4.091475e-10,	1653.43,	2.803742e-11,	1653.51,	3.947414e-09,	1653.36,	1.076843e-11,	1653.06,	2.299375e-09,	1653.13,	3.809869e-08,	1653.21,	7.119671e-10
1177.97,	1.68558,	0.147609,	5,	1671.85,	5.579566e-10,	1672,	2.821296e-11,	1672.08,	3.865648e-09,	1671.93,	1.836913e-11,	1671.63,	2.334203e-09,	1671.7,	3.765125e-08,	1671.78,	2.010238e-09
1187.58,	1.52367,	0.000499538,	5,	1690.42,	3.69819e-10,	1690.57,	2.761674e-11,	1690.64,	3.874668e-09,	1690.49,	8.380132e-12,	1690.2,	2.414221e-09,	1690.27,	3.730065e-08,	1690.35,	4.322194e-10
1197.48,	1.32574,	-0.000459629,	5,	1708.99,	3.697913e-10,	1709.14,	2.732438e-11,	1709.21,	3.917119e-09,	1709.06,	8.151558e-12,	1708.77,	2.735113e-09,	1708.84,	3.767319e-08,	1708.91,	4.237374e-10
1207.37,	1.12782,	-0.00101026,	5,	1727.56,	3.809374e-10,	1727.7,	2.755032e-11,	1727.78,	3.900146e-09,	1727.63,	9.082402e-12,	1727.33,	2.849166e-09,	1727.41,	3.758841e-08,	1727.48,	4.98167e-10
1217.27,	0.929958,	-0.00326262,	5,	1746.12,	5.834419e-10,	1746.27,	2.762528e-11,	1746.35,	3.89988e-09,	1746.2,	2.085774e-11,	1745.9,	2.84336e-09,	1745.97,	3.651536e-08,	1746.05,	2.215502e-09
1227.16,	0.732054,	-0.0368233,	5,	1764.69,	5.236667e-10,	1764.84,	2.718859e-11,	1764.91,	3.824105e-09,	1764.77,	1.710178e-11,	1764.47,	2.943165e-09,	1764.54,	3.712768e-08,	1764.62,	1.911098e-09
1237.06,	0.534137,	-0.00205193,	5,	1783.26,	3.695064e-10,	1783.41,	2.810548e-11,	1783.48,	3.900074e-09,	1783.33,	8.447409e-12,	1783.04,	2.941805e-09,	1783.11,	3.795772e-08,	1783.18,	4.230153e-10
1246.95,	0.336258,	-0.00259113,	5,	1801.83,	4.471461e-10,	1801.98,	2.676974e-11,	1802.05,	3.891228e-09,	1801.9,	1.244414e-11,	1801.6,	2.894488e-09,	1801.68,	3.704115e-08,	1801.75,	1.177416e-09
1256.85,	0.138316,	-0.0104292,	5,	1820.4,	3.677543e-10,	1820.55,	2.707376e-11,	1820.62,	3.885734e-09,	1820.47,	8.125615e-12,	1820.17,	2.938923e-09,	1820.25,	3.765281e-08,	1820.32,	4.131523e-10
1266.37,	0.0740691,	0.00775056,	5,	1838.96,	4.630181e-10,	1839.11,	2.768701e-11,	1839.19,	3.905521e-09,	1839.04,	1.411287e-11,	1838.74,	2.890625e-09,	1838.81,	3.674151e-08,	1838.89,	1.278855e-09
1276.27,	0.271941,	0.00479817,	5,	1857.53,	3.954549e-10,	1857.68,	2.742537e-11,	1857.75,	3.84318e-09,	1857.61,	1.007625e-11,	1857.31,	2.944461e-09,	1857.38,	3.745969e-08,	1857.46,	7.113798e-10
1286.16,	0.469697,	-0.000275425,	5,	1876.1,	3.783799e-10,	1876.25,	2.642762e-11,	1876.32,	3.868311e-09,	1876.17,	8.964262e-12,	1875.875,	2.980708e-09,	1875.95,	3.716378e-08,	1876.02,	5.816224e-10
1296.06,	0.667581,	0.000239856,	5,	1894.67,	3.599683e-10,	1894.82,	2.693464e-11,	1894.89,	3.852054e-09,	1894.74,	7.816701e-12,	1894.44,	3.01853e-09,	1894.52,	3.748503e-08,	1894.59,	3.919974e-10
1305.95,	0.865507,	0.00378946,	5,	1913.23,	3.570649e-10,	1913.38,	2.622929e-11,	1913.46,	3.917964e-09,	1913.31,	8.022887e-12,	1913.01,	2.627696e-09,	1913.09,	3.823327e-08,	1913.16,	3.959206e-10
1327.47,	0.913315,	1.97068e-06,	6,	1931.8,	3.578728e-10,	1931.95,	2.715058e-11,	1932.03,	3.857492e-09,	1931.88,	7.696996e-12,	1931.58,	2.354019e-09,	1931.65,	3.818601e-08,	1931.73,	4.096208e-10
1360.47,	0.924829,	2.04697e-06,	6,	1950.37,	4.036084e-10,	1950.52,	2.737592e-11,	1950.59,	3.859726e-09,	1950.44,	1.011158e-11,	1950.15,	2.323766e-09,	1950.22,	3.74968e-08,	1950.3,	8.041611e-10
1393.47,	0.9335168,	2.69544e-06,	6,	1968.94,	3.534136e-10,	1969.09,	2.62076e-11,	1969.16,	3.822315e-09,	1969.01,	7.923585e-12,	1968.71,	2.347491e-09,	1968.79,	3.765427e-08,	1968.86,	3.847747e-10
1426.47,	0.939049,	2.80988e-06,	6,	1987.51,	3.531464e-10,	1987.66,	2.652404e-11,	1987.73,	3.85389e-09,	1987.58,	8.115011e-12,	1987.28,	2.357031e-09,	1987.36,	3.832428e-08,	1987.43,	3.870412e-10
1459.47,	0.94335,	1.89439e-06,	6,	2006.07,	3.622183e-10,	2006.22,	2.678781e-11,	2006.3,	3.883631e-09,	2006.15,	7.870642e-12,	2005.85,	2.346849e-09,	2005.92,	3.745052e-08,	2006,	4.195785e-10
1492.47,	0.946609,	2.31399e-06,	6,	2024.64,	4.063525e-10,	2024.79,	2.666385e-11,	2024.87,	3.861394e-09,	2024.72,	1.046953e-11,	2024.42,	2.318636e-09,	2024.49,	3.780766e-08,	2024.57,	8.765672e-10
1525.47,	0.94863,	2.19955e-06,	6,	2043.21,	3.525904e-10,	2043.36,	2.694798e-11,	2043.43,	3.830371e-09,	2043.29,	7.447005e-12,	2042.99,	2.356564e-09,	2043.06,	3.784278e-08,	2043.14,	3.792145e-10
1558.47,	0.951018,	2.19955e-06,	6,	2061.78,	3.504706e-10,	2061.93,	2.634616e-11,	2062,	3.868212e-09,	2061.85,	7.480474e-12,	2061.56,	2.362046e-09,	2061.63,	3.814968e-08,	2061.7,	3.788418e-10
1591.47,	0.952195,	2.69544e-06,	6,	2080.35,	3.541467e-10,	2080.49,	2.70273e-11,	2080.57,	3.890967e-09,	2080.42,	7.783361e-12,	2080.12,	2.355286e-09,	2080.2,	3.782665e-08,	2080.27,	4.048439e-10
1617.29,	0.826515,	-0.00249812,	7,	2098.91,	3.936389e-10,	2099.06,	2.657149e-11,	2099.14,	3.84001e-09,	2098.99,	9.986949e-12,	2098.69,	2.321851e-09,	2098.76,	3.713335e-08,	2098.84,	7.727979e-10
1632.87,	0.509411,	-0.00249736,	7,	2117.48,	3.492453e-10,	2117.63,	3.052363e-11,	2117.7,	3.815559e-09,	2117.56,	7.40487e-12,	2117.26,	2.356532e-09,	2117.33,	3.758673e-08,	2117.41,	3.750637e-10
1650.84,	0.208918,	-0.00249762,	7,	2136.05,	3.447241e-10,	2136.2,	3.0489e-11,	2136.27,	3.864688e-09,	2136.12,	7.568156e-12,	2135.83,	2.360389e-09,	2135.9,	3.762255e-08,	2135.97,	3.746688e-10
1683.69,	0.0849237,	-0.00249709,	7,	2154.62,	3.516305e-10,	2154.77,	3.085248e-11,	2154.84,	3.896585e-09,	2154.69,	7.688222e-12,	2154.39,	2.359754e-09,	2154.47,	3.791805e-08,	2154.54,	4.177179e-10
1716.69,	0.0495927,	-0.00249728,	7,	2173.18,	4.523243e-10,	2173.33,	2.888886e-11,	2173.41,	3.806302e-09,	2173.26,	1.235428e-11,	2172.96,	2.307909e-09,	2173.04,	3.662592e-08,	2173.11,	1.235298e-09
1749.69,	0.04898525,	-0.00249759,	7,	2191.75,	3.501233e-10,	2191.9,	2.922713e-11,	2191.97,	3.879623e-09,	2191.83,	6.951419e-12,	2191.53,	2.364913e-09,	2191.6,	3.75962e-08,	2191.68,	3.65794e-10
1782.69,	0.0488363,	-0.00249728,	7,	2210.32,	3.423984e-10,	2210.47,	2.947713e-11,	2210.54,	3.841374e-09,	2210.39,	7.966231e-12,	2210.1,	2.359431e-09,	2210.17,	3.815333e-08,	2210.25,	3.803708e-10
1815.69,	0.0488363,	-0.00249709,	7,	2228.89,	3.972135e-10,	2229.04,	2.817768e-11,	2229.11,	3.859938e-09,	2228.96,	1.035583e-11,	2228.66,	2.34337e-09,	2228.74,	3.720119e-08,	2228.81,	8.651087e-10
1848.69,	0.0485612,	-0.00249728,	7,	2247.46,	3.429183e-10,	2247.61,	2.645398e-11,	2247.68,	3.903516e-09,	2247.53,	7.310821e-12,	2247.23,	3.656677e-09,	2247.31,	3.741986e-08,	2247.38,	3.600467e-10
1881.69,	0.0480378,	-0.0024974,	7,	2266.02,	3.451301e-10,	2266.17,	2.651964e-11,	2266.25,	3.859522e-09,	2266.1,	7.385115e-12,	2265.8,	3.946121e-09,	2265.875,	3.761404e-08,	2265.95,	3.794987e-10
1913,	0.0597855,	1.74181e-06,	8,	2284.59,	6.377338e-10,	2284.74,	2.753459e-11,	2284.82,	3.926008e-09,	2284.67,	2.335055e-11,	2284.37,	3.995319e-09,	2284.44,	3.695194e-08,	2284.52,	2.606983e-09
1946,	0.115361,	2.46657e-06,	8,	2303.16,	3.366909e-10,	2303.31,	2.622245e-11,	2303.38,	3.870835e-09,	2303.23,	6.908376e-12,	2302.94,	4.022794e-09,	2303.01,	3.836055e-08,	2303.09,	3.5996e-10
1979,	0.154963,	2.58101e-06,	8,	2321.73,	3.662614e-10,	2321.88,	2.656026e-11,	2321.95,	3.900061e-09,	2321.8,	8.646935e-12,	2321.5,	4.03882e-09,	2321.58,	3.829882e-08,	2321.65,	6.225889e-10
2012,	0.205224,	2.2377e-06,	8,	2340.3,	3.384029e-10,	2340.44,	2.649692e-11,	2340.52,	3.870364e-09,	2340.37,	6.782072e-12,	2340.07,	4.072118e-09,	2340.15,	3.872082e-08,	2340.22,	3.537885e-10
2045,	0.265487,	2.04697e-06,	8,	2358.86,	3.471411e-10,	2359.01,	2.597545e-11,	2359.09,	3.846706e-09,	2358.94,	7.512783e-12,	2358.64,	4.041856e-09,	2358.71,	3.857158e-08,	2358.79,	4.181672e-10
2078,	0.334395,	2.19955e-06,	8,	2377.43,	3.344489e-10,	2377.58,	2.661621e-11,	2377.65,	3.895615e-09,	2377.51,	6.93906e-12,	2377.21,	4.067311e-09,	2377.28,	3.864436e-08,	2377.36,	3.395182e-10
2108.01,	0.586935,	2.6573e-06,	8,	2396,	3.371445e-10,	2396.15,	2.542241e-11,	2396.22,	3.862156e-09,	2396.07,	6.938323e-12,	2395.78,	4.07248e-09,	2395.85,	3.761259e-08,	2395.92,	3.707849e-10
2141.01,	0.726677,	2.161406e-06,	8,	2414.57,	3.278126e-10,	2414.72,	2.563649e-11,	2414.79,	3.870806e-09,	2414.64,	6.666249e-12,	2414.34,	4.067802e-09,	2414.42,	3.739094e-08,	2414.49,	3.402771e-10
2174.01,	0.806726,	2.161406e-06,	8,	2433.13,	3.349852e-10,	2433.28,	2.632916e-11,	2433.36,	3.850023e-09,	2433.21,	7.246549e-12,	2432.91,	4.084436e-09,	2432.99,	3.785022e-08,	2433.06,	3.636957e-10
2207.01,	0.841411,	2.54286e-06,	8,	2451.7,	3.29968e-10,	2451.85,	2.620177e-11,	2451.93,	3.911811e-09,	2451.78,	6.708043e-12,	2451.48,	4.0994e-09,	2451.55,	3.811159e-08,	2451.63,	3.361184e-10
2213.82,	0.554515,	-0.004997449,	9,	2470.27,	3.304468e-10,	2470.42,	2.590131e-11,	2470.49,	3.873745e-09,	2470.35,	7.02835e-12,	2470.05,	4.088383e-09,	2470.12,	3.752589e-08,	2470.2,	3.541414e-10
2220.29,	0.223799,	-0.00499779,	9,	2488.84,	3.296398e-10,	2488.99,	2.539409e-11,	2489.06,	3.869583e-09,	2488.91,	7.170547e-12,	2488.62,	4.095582e-09,	2488.69,	3.824783e-08,	2488.76,	3.347999e-10
2250.3,	0.0389873,	-0.00499783,	9,	2507.41,	3.31479e-10,	2507.56,	2.504851e-11,	2507.63,	3.846566e-09,	2507.48,	6.739157e-12,	2507.18,	4.107328e-09,	2507.26,	3.777962e-08,	2507.33,	3.52088e-10
2283.3,	0.0372987,	-0.00499806,	9,	2525.97,	3.307197e-10,	2526.12,	2.511615e-11,	2526.2,	3.827455e-09,	2526.05,	6.57282e-12,	2525.75,	2.475498e-09,	2525.83,	3.791974e-08,	2525.9,	3.315052e-10
2316.3,	0.0370771,	-0.00499749,	9,	2544.54,	3.405409e-10,	2544.69,	2.535612e-11,	2544.77,	3.829981e-09,	2544.62,	7.774858e-12,	2544.32,	2.398772e-09,	2544.39,	3.749853e-08,	2544.47,	4.629448e-10
2349.3,	0.0370924,	-0.00499798,	9,	2563.11,	3.405557e-10,	2563.26,	2.517671e-11,	2563.33,	3.814751e-09,	2563.18,	7.310766e-12,	2562.89,	2.388503e-09,	2562.96,	3.817517e-08,	2563.04,	4.825544e-10
2382.3,	0.0370121,	-0.0049973,	9,	2581.68,	3.506788e-10,	2581.83,	2.482531e-11,	2581.9,	3.860591e-09,	2581.75,	7.871746e-12,	2581.45,	2.38497e-09,	2581.53,	3.733671e-08,	2581.6,	6.255724e-10
2415.3,	0.0368555,	-0.00499756,	9,	2600.25,	3.698442e-10,	2600.39,	2.500574e-11,	2600.47,	3.81662e-09,	2600.32,	8.986862e-12,	2600.02,	2.361471e-09,	2600.1,	3.784768e-08,	2600.17,	7.935386e-10
2448.3,	0.0367715,	-0.00499768,	9,	2618.81,	4.342713e-10,	2618.96,	2.536687e-11,	2619.04,	3.783501e-09,	2618.89,	1.344981e-11,	2618.59,	2.359709e-09,	2618.66,	3.676216e-08,	2618.74,	1.485137e-09
2481.3,	0.0368364,	-0.00499772,	9,	2637.38,	3.352504e-10,	2637.53,	2.681747e-11,	2637.61,	3.859656e-09,	2637.46,	1.313203e-11,	2637.16,	2.396787e-09,	2637.23,	3.769928e-08,	2637.31,	3.215206e-10
2513,	0.0506968,	2.6573e-06,	10,	2655.95,	3.204988e-10,	2656.1,	2.507276e-11,	2656.17,	3.842702e-09,	2656.02,	6.505472e-12,	2655.72,	2.400333e-09,	2655.8,	3.831688e-08,	2655.87,	3.199039e-10
2546,	0.1025013,	3.076897e-06,	10,	2674.52,	3.214413e-10,	2674.67,	2.576877e-11,	2674.74,	3.813164e-09,	2674.59,	6.454376e-12,	2674.29,	2.405808e-09,	2674.37,	3.867351e-08,	2674.44,	3.193436e-10
2579,	0.13057,	2.46657e-06,	10,	2693.09,	3.190755e-10,	2693.23,	2.572035e-11,	2693.31,	3.854786e-09,	2693.16,	6.474918e-12,	2692.86,	2.391877e-09,	2692.94,	3.82115e-08,	2693.01,	3.184367e-10
2612,	0.162015,	1.818097e-06,	10,	2711.65,	3.248929e-10,	2711.8,	2.441059e-11,	2711.88,	3.886183e-09,	2711.73,	6.474403e-12,	2711.43,	2.409005e-09,	2711.5,	3.750024e-08,	2711.58,	3.633031e-10
2645,	0.200873,	2.12326e-06,	10,	2730.22,	3.204838e-10,	2730.37,	2.564467e-11,	2730.44,	3.876103e-09,	2730.3,	6.036087e-12,	2730,	2.397966e-09,	2730.07,	3.780166e-08,	2730.15,	3.16257e-10
2678,	0.245881,	2.35213e-06,	10,	2748.79,	3.168177e-10,	2748.94,	2.496587e-11,	2749.01,	3.831882e-09,	2748.86,	6.02302e-12,	2748.56,	2.414714e-09,	2748.64,	3.763682e-08,	2748.71,	3.143782e-10
2711,	0.2955,	2.96246e-06,	10,	2767.36,	3.161698e-10,	2767.51,	2.54677e-11,	2767.58,	3.77386e-09,	2767.43,	6.093656e-12,	2767.13,	2.401243e-09,	2767.21,	3.776113e-08,	2767.28,	3.122919e-10
2744,	0.356103,	2.08512e-06,	10,	2785.92,	3.151895e-10,	2786.07,	2.798561e-11,	2786.15,	3.845281e-09,	2786,	6.010988e-12,	2785.7,	2.407671e-09,	2785.78,	3.769357e-08,	2785.85,	3.112264e-10
2776.24,	0.56823,	2.2377e-06,	10,	2804.49,	3.112456e-10,	2804.64,	2.895134e-11,	2804.72,	3.855738e-09,	2804.57,	6.55143e-12,	2804.27,	2.413401e-09,	2804.34,	3.797224e-08,	2804.42,	3.112916e-10
2809.24,	0.680202,	2.46657e-06,	10,	2823.06,	3.177796e-10,	2823.21,	2.770069e-11,	2823.28,	3.879091e-09,	2823.13,	6.064214e-12,	2822.84,	3.940436e-09,	2822.91,	3.774283e-08,	2822.99,	3.135202e-10
2810.95,	0.370949,	-0.00999744,	11,	2841.63,	3.160991e-10,	2841.78,	2.70042e-11,	2841.85,	3.848602e-09,	2841.7,	5.824153e-12,	2841.4,	5.907995e-09,	2841.48,	3.865891e-08,	2841.55,	3.126878e-10
2821.91,	0.042651,	-0.00999721,	11,	2860.19,	3.169209e-10,	2860.34,	2.557792e-11,	2860.42,	3.89582e-09,	2860.27,	6.447448e-12,	2859.97,	6.036954e-09,	2860.05,	3.782312e-08,	2860.12,	3.186312e-10
2854.91,	0.0276827,	-0.00999767,	11,	2878.76,	3.187538e-10,	2878.91,	2.554784e-11,	2878.99,	3.837346e-09,	2878.84,	6.343848e-12,	2878.54,	6.061045e-09,	2878.62,	3.768288e-08,	2878.69,	3.481277e-10
2887.91,	0.0275223,	-0.00999748,	11,	2897.33,	3.448137e-10,	2897.48,	2.572959e-11,	2897.56,	3.86927e-09,	2897.41,	8.037697e-12,	2897.11,	6.091052e-09,	2897.18,	3.748068e-08,	2897.26,	6.162514e-10
2920.91,	0.0275414,	-0.00999729,	11,	2915.9,	5.104386e-10,	2916.05,	2.614039e-11,	2916.12,	3.862412e-09,	2915.97,	1.872768e-11,	2915.67,	6.130557e-09,	2915.75,	3.730186e-08,	2915.82,	1.972288e-09
2953.91,	0.0273809,	-0.00999794,	11,	2934.47,	3.15284e-10,	2934.62,	2.552484e-11,	2934.69,	3.888379e-09,	2934.54,	5.456613e-12,	2934.24,	6.131676e-09,	2934.32,	3.764643e-08,	2934.39,	3.089476e-10
2986.91,	0.027316,	-0.00999786,	11,	2953.03,	3.109732e-10,	2953.18,	2.505136e-11,	2953.26,	3.844364e-09,	2953.11,	6.167738e-12,	2952.81,	6.145192e-09,	2952.88,	3.855705e-08,	2952.96,	3.076897e-10
3019.91,	0.0272969,	-0.00999756,	11,	2971.6,	3.100935e-10,	2971.75,	2.458698e-11,	2971.83,	3.896439e-09,	2971.68,	5.903445e-12,	2971.38,	6.156174e-09,	2971.45,	3.790107e-08,	2971.53,	3.051195e-10
3052.91,	0.0272892,	-0.00999748,	11,	2990.17,	3.091832e-10,	2990.32,	2.548236e-11,	2990.39,	3.883652e-09,	2990.24,	5.80454e-12,	2989.95,	6.1662e-09,	2990.02,	3.77002e-08,	2990.1,	3.066227e-10
3085.91,	0.0272549,	-0.0099974,	11,	3008.74,	3.109143e-10,	3008.89,	2.529733e-11,	3008.96,	3.85311e-09,	3008.81,	5.904251e-12,	3008.52,	6.131647e-09,	3008.59,	3.859349e-08,	3008.66,	3.051047e-10
3117,	0.0556136,	2.77173e-06,	12,	3027.31,	3.109617e-10,	3027.45,	2.494419e-11,	3027.53,	3.849821e-09,	3027.38,	6.143556e-12,	3027.08,	6.174101e-09,	3027.16,	3.786629e-08,	3027.23,	3.131446e-10
3150,	0.094681,	1.97068e-06,	12,	3045.87,	3.311029e-10,	3046.02,	2.575872e-11,	3046.1,	3.836203e-09,	3045.95,	7.364078e-12,	3045.65,	6.176804e-09,	3045.72,	3.844428e-08,	3045.8,	5.37905e-10
3183,	0.117962,	2.2377e-06,	12,	3064.44,	3.098464e-10,	3064.59,	2.559981e-11,	3064.67,	3.854214e-09,	3064.52,	5.985957e-12,	3064.22,	6.161003e-09,	3064.29,	3.763633e-08,	3064.37,	3.076308e-10
3216,	0.140614,	2.04697e-06,	12,	3083.01,	3.065951e-10,	3083.16,	2.557933e-11,	3083.23,	3.891355e-09,	3083.09,	6.274199e-12,	3082.79,	6.167433e-09,	3082.86,	3.850246e-08,	3082.94,	3.008258e-10
3249,	0.166264,	2.39028e-06,	12,	3101.58,	3.107713e-10,	3101.73,	2.547629e-11,	3101.8,	3.895609e-09,	3101.65,	5.334741e-12,	3101.35,	6.173571e-09,	3101.43,	3.76772e-08,	3101.5,	2.987062e-10
3282,	0.19863,	2.61915e-06,	12,	3120.15,	3.074336e-10,	3120.3,	2.552946e-11,	3120.37,	3.839021e-09,	3120.22,	5.763454e-12,	3119.92,	2.753284e-09,	3120,	3.84989e-08,	3120.07,	2.974251e-10
3315,	0.235944,	2.2377e-06,	12,	3138.71,	3.068865e-10,	3138.86,	2.510677e-11,	3138.94,	3.813244e-09,	3138.79,	5.905641e-12,	3138.49,	2.489495e-09,	3138.57,	3.758414e-08,	3138.64,	3.223503e-10
3348,	0.277345,	2.161406e-06,	12,	3157.28,	3.737521e-10,	3157.43,	2.668597e-11,	3157.51,	3.857179e-09,	3157.36,	1.552188e-11,	3157.06,	2.463257e-09,	3157.13,	3.788111e-08,	3157.21,	3.070574e-10
3381,	0.3189,	2.35213e-06,	12,	3175.85,	3.074311e-10,	3176,	2.482474e-11,	3176.07,	3.826225e-09,	3175.92,	5.833955e-12,	3175.63,	2.448511e-09,	3175.7,	3.76337e-08,	3175.78,	2.992961e-10
3410.15,	0.347075,	-0.0149981,	13,	3194.42,	3.038738e-10,	3194.57,	2.489135e-11,	3194.64,	3.794143e-09,	3194.49,	6.062617e-12,	3194.19,	2.44594e-09,	3194.27,	3.762833e-08,	3194.34,	2.933689e-10
3419.41,	0.0284545,	-0.0149978,	13,	3212.98,	2.982457e-10,	3213.13,	2.56504e-11,	3213.21,	3.781927e-09,	3213.06,	5.641868e-12,	3212.76,	2.440488e-09,	3212.84,	3.766159e-08,	3212.91,	2.96661e-10
3452.41,	0.022636,	-0.0149977,	13,	3231.55,	3.042462e-10,	3231.7,	2.532076e-11,	3231.78,	3.776013e-09,	3231.63,	6.19915e-12,	3231.33,	2.430757e-09,	3231.4,	3.749916e-08,	3231.48,	3.270607e-10
3485.41,	0.0225061,	-0.0149976,	13,	3250.12,	3.034785e-10,	3250.27,	2.526096e-11,	3250.34,	3.810548e-09,	3250.19,	5.491377e-12,	3249.9,	2.439039e-09,	3249.97,	3.823691e-08,	3250.05,	3.00817e-10
3518.41,	0.0224106,	-0.0149979,	13,	3268.69,	3.023373e-10,	3268.84,	2.450173e-11,	3268.91,	3.79522e-09,	3268.76,	5.260265e-12,	3268.46,	2.435997e-09,	3268.54,	3.723225e-08,	3268.61,	2.918483e-10
3551.41,	0.0223075,	-0.0149979,	13,	3287.26,	3.01348e-10,	3287.4,	2.467447e-11,	3287.48,	3.802168e-09,	3287.33,	5.653623e-12,	3287.03,	2.438518e-09,	3287.11,	3.837518e-08,	3287.18,	2.907468e-10
3584.41,	0.0222731,	-0.0149979,	13,	3305.82,	3.045597e-10,	3305.97,	2.462151e-11,	3306.05,	3.825125e-09,	3305.9,	5.900127e-12,	3305.6,	2.437183e-09,	3305.67,	3.769253e-08,	3305.75,	3.483014e-10
3617.41,	0.02228071,	-0.0149979,	13,	3324.39,	3.006968e-10,	3324.54,	2.469406e-11,	3324.61,	3.807977e-09,	3324.46,	5.512536e-12,	3324.17,	2.438879e-09,	3324.24,	3.840066e-08,	3324.32,	2.915849e-10
3650.41,	0.0221508,	-0.0149977,	13,	3342.96,	3.017387e-10,	3343.11,	2.490363e-11,	3343.18,	3.841359e-09,	3343.03,	5.504958e-12,	3342.74,	2.444218e-09,	3342.81,	3.891725e-08,	3342.88,	2.873793e-10
3683.41,	0.0222158,	-0.0149978,	13,	3361.53,	3.004191e-10,	3361.68,	2.532579e-11,	3361.75,	3.81117e-09,	3361.6,	5.863672e-12,	3361.3,	2.438395e-09,	3361.38,	3.775944e-08,	3361.45,	2.974231e-10
3715,	0.0444734,	2.88617e-06,	14,	3380.1,	3.022341e-10,	3380.24,	2.490159e-11,	3380.32,	3.803339e-09,	3380.17,	5.771237e-12,	3379.87,	2.443986e-09,	3379.95,	3.775541e-08,	3380.02,	2.906275e-10
3748,	0.0827766,	2.6573e-06,	14,	3398.66,	3.003085e-10,	3398.81,	2.458309e-11,	3398.89,	3.794042e-09,	3398.74,	5.675309e-12,	3398.44,	2.441177e-09,	3398.51,	3.753194e-08,	3398.59,	2.857108e-10
3781,	0.100572,	2.61915e-06,	14,	3417.23,	2.975374e-10,	3417.38,	2.435757e-11,	3417.45,	3.80235e-09,	3417.31,	5.3795e-12,	3417.01,	4.02142e-09,	3417.08,	3.845884e-08,	3417.16,	2.871797e-10
3814,	0.11606,	2.73359e-06,	14,	3435.8,	3.592356e-10,	3435.95,	2.502372e-11,	3436.02,	3.870444e-09,	3435.87,	9.140306e-12,	3435.58,	7.854904e-09,	3435.65,	3.790586e-08,	3435.72,	9.882288e-10
3847,	0.131021,	2.54286e-06,	14,	3454.37,	3.027633e-10,	3454.52,	2.578639e-11,	3454.59,	3.865205e-09,	3454.44,	5.853575e-12,	3454.14,	8.104474e-09,	3454.22,	3.753724e-08,	3454.29,	3.237537e-10
3880,	0.147158,	2.35213e-06,	14,	3472.93,	2.969459e-10,	3473.08,	2.549424e-11,	3473.16,	3.880482e-09,	3473.01,	5.349014e-12,	3472.71,	8.149232e-09,	3472.79,	3.768643e-08,	3472.86,	2.806413e-10
3913,	0.165652,	2.42842e-06,	14,	3491.5,	3.106336e-10,	3491.65,	2.493105e-11,	3491.73,	3.862722e-09,	3491.58,	6.616741e-12,	3491.28,	8.198065e-09,	3491.35,	3.771647e-08,	3491.43,	4.348084e-10
3946,	0.186894,	2.42842e-06,	14,	3510.07,	2.978442e-10,	3510.22,	2.493068e-11,	3510.29,	3.872896e-09,	3510.14,	5.521644e-12,	3509.85,	8.201403e-09,	3509.92,	3.840065e-08,	3509.99,	2.798742e-10
3979,	0.21118,	2.12326e-06,	14,	3528.64,	2.948257e-10,	3528.79,	2.497403e-11,	3528.86,	3.858895e-09,	3528.71,	5.368456e-12,	3528.41,	8.205627e-09,	3528.49,	3.845521e-08,	3528.56,	2.778356e-10
4010.1,	0.2278751,	-0.0199975,	15,	3547.21,	2.95228e-10,	3547.36,	2.513905e-11,	3547.43,	3.846447e-09,	3547.28,	5.429847e-12,	3546.98,	8.202869e-09,	3547.06,	3.764379e-08,	3547.13,	2.758436e-10
4027.91,	0.0194765,	-0.0199977,	15,	3565.77,	2.930791e-10,	3565.92,	2.436302e-11,	3566,	3.860153e-09,	3565.85,	5.294509e-12,	3565.55,	8.244323e-09,	3565.625,	3.828789e-08,	3565.7,	2.734267e-10
4060.91,	0.0190716,	-0.0199973,	15,	3584.34,	2.917847e-10,	3584.49,	2.466339e-11,	3584.57,	3.876982e-09,	3584.42,	4.816246e-12,	3584.12,	8.279221e-09,	3584.19,	3.767321e-08,	3584.27,	2.662529e-10
4093.91,	0.0190181,	-0.0199968,	15,	3602.91,	2.919463e-10,	3603.06,	2.53609e-11,	3603.13,	3.820196e-09,	3602.98,	4.926928e-12,	3602.69,	8.253003e-09,	3602.76,	3.853167e-08,	3602.84,	2.708445e-10
4126.91,	0.0189531,	-0.0199973,	15,	3621.48,	2.94764e-10,	3621.63,	2.502885e-11,	3621.7,	3.881552e-09,	3621.55,	5.000268e-12,	3621.25,	8.310373e-09,	3621.33,	3.841889e-08,	3621.4,	2.667407e-10
4159.91,	0.0189914,	-0.0199973,	15,	3640.05,	2.877605e-10,	3640.19,	2.486127e-11,	3640.27,	3.809728e-09,	3640.12,	5.17824e-12,	3639.82,	8.261503e-09,	3639.9,	3.8397e-08,	3639.97,	2.627275e-10
4192.91,	0.0189493,	-0.0199972,	15,	3658.61,	2.923712e-10,	3658.76,	2.549917e-11,	3658.84,	3.839641e-09,	3658.69,	5.26541e-12,	3658.39,	8.285686e-09,	3658.46,	3.76121e-08,	3658.54,	2.831952e-10
4225.91,	0.0189188,	-0.0199975,	15,	3677.18,	2.870391e-10,	3677.33,	2.450673e-11,	3677.4,	3.807562e-09,	3677.26,	5.062817e-12,	3676.96,	8.280232e-09,	3677.03,	3.826241e-08,	3677.11,	2.599564e-10
4258.91,	0.0188806,	-0.01999731,	15,	3695.75,	2.888774e-10,	3695.9,	2.415944e-11,	3695.97,	3.854847e-09,	3695.82,	4.938218e-12,	3695.53,	8.310887e-09,	3695.6,	3.839702e-08,	3695.67,	2.593807e-10
4291.91,	0.0188576,	-0.0199972,	15,	3714.32,	2.904717e-10,	3714.47,	2.513294e-11,	3714.54,	3.806289e-09,	3714.39,	4.770103e-12,	3714.09,	3.920922e-09,	3714.17,	3.762568e-08,	3714.24,	2.578213e-10
4323,	0.0585095,	2.35213e-06,	16,	3732.88,	2.860133e-10,	3733.03,	2.490673e-11,	3733.11,	3.824864e-09,	3732.96,	4.821513e-12,	3732.66,	2.636634e-09,	3732.74,	3.750363e-08,	3732.81,	2.574306e-10
4356,	0.0834375,	2.2377e-06,	16,	3751.45,	2.951703e-10,	3751.6,	2.525194e-11,	3751.68,	3.826323e-09,	3751.53,	5.683972e-12,	3751.23,	2.543025e-09,	3751.3,	3.770152e-08,	3751.38,	3.096396e-10
4389,	0.0991585,	2.88617e-06,	16,	3770.02,	2.874143e-10,	3770.17,	2.452105e-11,	3770.24,	3.793363e-09,	3770.1,	4.952704e-12,	3769.8,	2.525676e-09,	3769.87,	3.822967e-08,	3769.95,	2.56235e-10
4422,	0.113366,	2.96246e-06,	16,	3788.59,	2.892298e-10,	3788.74,	2.528056e-11,	3788.81,	3.792567e-09,	3788.66,	4.627472e-12,	3788.37,	2.489508e-09,	3788.44,	3.779788e-08,	3788.51,	2.591296e-10
4455,	0.127074,	2.54286e-06,	16,	3807.16,	2.894972e-10,	3807.31,	2.455885e-11,	3807.38,	3.771173e-09,	3807.23,	5.179121e-12,	3806.93,	2.494683e-09,	3807.01,	3.761633e-08,	3807.08,	2.564679e-10
4488,	0.141676,	2.80988e-06,	16,	3825.72,	2.868999e-10,	3825.87,	2.370604e-11,	3825.95,	3.767644e-09,	3825.8,	4.944829e-12,	3825.5,	2.483864e-09,	3825.58,	3.840069e-08,	3825.65,	2.524064e-10
4521,	0.157939,	2.35213e-06,	16,	3844.29,	2.869671e-10,	3844.44,	2.431142e-11,	3844.52,	3.782274e-09,	3844.37,	4.498089e-12,	3844.07,	2.474875e-09,	3844.14,	3.756076e-08,	3844.22,	2.502185e-10
4554,	0.17643,	2.12326e-06,	16,	3862.86,	2.8407e-10,	3863.01,	2.375374e-11,	3863.08,	3.81156e-09,	3862.93,	4.745309e-12,	3862.64,	2.479375e-09,	3862.71,	3.816056e-08,	3862.79,	2.516763e-10
4587,	0.197056,	2.504715e-06,	16,	3881.43,	2.873029e-10,	3881.58,	2.507647e-11,	3881.65,	3.789637e-09,	3881.5,	5.206371e-12,	3881.2,	2.467114e-09,	3881.28,	3.768262e-08,	3881.35,	2.539694e-10
,	,	,	,	3899.99,	2.848152e-10,	3900.14,	2.429337e-11,	3900.22,	3.80561e-09,	3900.07,	4.794781e-12,	3899.77,	2.451675e-09,	3899.85,	3.71879e-08,	3899.92,	2.511222e-10
,	,	,	,	3918.56,	2.825422e-10,	3918.71,	2.394705e-11,	3918.79,	3.767794e-09,	3918.64,	4.877295e-12,	3918.34,	2.462203e-09,	3918.41,	3.763094e-08,	3918.49,	2.512826e-10
,	,	,	,	3937.13,	2.81158e-10,	3937.28,	2.457285e-11,	3937.36,	3.776004e-09,	3937.21,	4.650456e-12,	3936.91,	2.468193e-09,	3936.98,	3.802229e-08,	3937.06,	2.470896e-10
,	,	,	,	3955.7,	2.797441e-10,	3955.85,	2.487773e-11,	3955.92,	3.783816e-09,	3955.77,	5.127621e-12,	3955.48,	2.470628e-09,	3955.55,	3.754028e-08,	3955.625,	2.490283e-10
,	,	,	,	3974.27,	2.833359e-10,	3974.41,	2.410536e-11,	3974.49,	3.787195e-09,	3974.34,	4.672117e-12,	3974.04,	2.483681e-09,	3974.12,	3.75133e-08,	3974.19,	2.51595e-10
,	,	,	,	3992.84,	2.837649e-10,	3992.98,	2.459078e-11,	3993.06,	3.755569e-09,	3992.91,	4.468671e-12,	3992.61,	2.469157e-09,	3992.69,	3.711736e-08,	3992.76,	2.503673e-10
,	,	,	,	4011.4,	2.80628e-10,	4011.55,	2.434819e-11,	4011.63,	3.780748e-09,	4011.48,	4.63102e-12,	4011.18,	2.481391e-09,	4011.25,	3.802958e-08,	4011.33,	2.475982e-10
,	,	,	,	4029.97,	2.830796e-10,	4030.12,	2.447935e-11,	4030.19,	3.811405e-09,	4030.05,	4.938347e-12,	4029.75,	9.927066e-09,	4029.82,	3.850617e-08,	4029.9,	2.483073e-10
,	,	,	,	4048.54,	3.001653e-10,	4048.69,	2.500921e-11,	4048.76,	3.831188e-09,	4048.61,	5.75158e-12,	4048.31,	1.016614e-08,	4048.39,	3.741656e-08,	4048.46,	2.905213e-10
,	,	,	,	4067.11,	2.822751e-10,	4067.26,	2.477747e-11,	4067.33,	3.806873e-09,	4067.18,	4.767079e-12,	4066.88,	1.015434e-08,	4066.96,	3.713443e-08,	4067.03,	2.452675e-10
,	,	,	,	4085.67,	2.835996e-10,	4085.82,	2.484917e-11,	4085.9,	3.861101e-09,	4085.75,	4.615298e-12,	4085.45,	1.022528e-08,	4085.53,	3.740454e-08,	4085.6,	2.438739e-10
,	,	,	,	4104.24,	2.834194e-10,	4104.39,	2.410209e-11,	4104.47,	3.823001e-09,	4104.32,	5.064146e-12,	4104.02,	1.028435e-08,	4104.09,	3.768967e-08,	4104.17,	2.479086e-10
,	,	,	,	4122.81,	2.935221e-10,	4122.96,	2.453319e-11,	4123.03,	3.844975e-09,	4122.88,	5.484295e-12,	4122.59,	1.031441e-08,	4122.66,	3.834974e-08,	4122.73,	3.207077e-10
,	,	,	,	4141.38,	2.803376e-10,	4141.53,	2.484104e-11,	4141.6,	3.872255e-09,	4141.45,	4.851224e-12,	4141.15,	1.030193e-08,	4141.23,	3.757791e-08,	4141.3,	2.467335e-10
,	,	,	,	4159.94,	2.831093e-10,	4160.09,	2.439643e-11,	4160.17,	3.883029e-09,	4160.02,	4.594789e-12,	4159.72,	1.030589e-08,	4159.8,	3.771749e-08,	4159.87,	2.454874e-10
,	,	,	,	4178.51,	2.799689e-10,	4178.66,	2.415436e-11,	4178.74,	3.821912e-09,	4178.59,	4.504066e-12,	4178.29,	1.029218e-08,	4178.37,	3.736962e-08,	4178.44,	2.458196e-10
,	,	,	,	4197.08,	2.804945e-10,	4197.23,	2.49725e-11,	4197.31,	3.784331e-09,	4197.16,	4.707608e-12,	4196.86,	1.032942e-08,	4196.93,	3.760371e-08,	4197.01,	2.428262e-10
,	,	,	,	4215.65,	2.777934e-10,	4215.8,	2.466878e-11,	4215.87,	3.809814e-09,	4215.72,	4.677714e-12,	4215.42,	1.031336e-08,	4215.5,	3.727971e-08,	4215.57,	2.415328e-10
,	,	,	,	4234.22,	2.786378e-10,	4234.37,	2.455896e-11,	4234.44,	3.820693e-09,	4234.29,	4.535574e-12,	4233.99,	1.034523e-08,	4234.07,	3.760144e-08,	4234.14,	2.446361e-10
,	,	,	,	4252.79,	2.753178e-10,	4252.93,	2.393092e-11,	4253.01,	3.826246e-09,	4252.86,	4.560235e-12,	4252.56,	1.034258e-08,	4252.64,	3.750979e-08,	4252.71,	2.457853e-10
,	,	,	,	4271.35,	2.795962e-10,	4271.5,	2.463142e-11,	4271.58,	3.79476e-09,	4271.43,	4.652766e-12,	4271.13,	1.031735e-08,	4271.2,	3.754886e-08,	4271.28,	2.417184e-10
,	,	,	,	4289.92,	2.781026e-10,	4290.07,	2.479449e-11,	4290.14,	3.866241e-09,	4289.99,	4.817065e-12,	4289.7,	1.035652e-08,	4289.77,	3.864441e-08,	4289.85,	2.437253e-10
,	,	,	,	4308.49,	2.767523e-10,	4308.64,	2.352415e-11,	4308.71,	3.790535e-09,	4308.56,	4.538695e-12,	4308.27,	1.032856e-08,	4308.34,	3.750648e-08,	4308.41,	2.422172e-10
,	,	,	,	4327.06,	2.750012e-10,	4327.2,	2.435529e-11,	4327.28,	3.808672e-09,	4327.13,	4.823348e-12,	4326.83,	2.864755e-09,	4326.91,	3.79656e-08,	4326.98,	2.394706e-10
,	,	,	,	4345.62,	2.758335e-10,	4345.77,	2.434168e-11,	4345.85,	3.780591e-09,	4345.7,	4.672589e-12,	4345.4,	2.64575e-09,	4345.47,	3.754296e-08,	4345.55,	2.408191e-10
,	,	,	,	4364.19,	2.760856e-10,	4364.34,	2.430632e-11,	4364.41,	3.767929e-09,	4364.27,	4.136895e-12,	4363.97,	2.552792e-09,	4364.04,	3.765276e-08,	4364.12,	2.394034e-10
,	,	,	,	4382.76,	2.736647e-10,	4382.91,	2.423202e-11,	4382.98,	3.768043e-09,	4382.83,	4.923405e-12,	4382.54,	2.520945e-09,	4382.61,	3.844069e-08,	4382.68,	2.3926e-10
,	,	,	,	4401.33,	2.771515e-10,	4401.48,	2.409875e-11,	4401.55,	3.764365e-09,	4401.4,	4.408532e-12,	4401.1,	2.517394e-09,	4401.18,	3.733292e-08,	4401.25,	2.398453e-10
,	,	,	,	4419.9,	2.774973e-10,	4420.04,	2.457566e-11,	4420.12,	3.756043e-09,	4419.97,	4.746745e-12,	4419.67,	2.501621e-09,	4419.75,	3.808417e-08,	4419.82,	2.401579e-10
,	,	,	,	4438.46,	2.763348e-10,	4438.61,	2.438817e-11,	4438.69,	3.786318e-09,	4438.54,	4.533394e-12,	4438.24,	2.505214e-09,	4438.32,	3.738808e-08,	4438.39,	2.40106e-10
,	,	,	,	4457.03,	2.770162e-10,	4457.18,	2.406378e-11,	4457.26,	3.721772e-09,	4457.11,	4.567358e-12,	4456.81,	2.50776e-09,	4456.88,	3.753157e-08,	4456.96,	2.412248e-10
,	,	,	,	4475.6,	2.719859e-10,	4475.75,	2.395265e-11,	4475.82,	3.768731e-09,	4475.67,	4.563932e-12,	4475.38,	2.510117e-09,	4475.45,	3.76647e-08,	4475.53,	2.385789e-10
,	,	,	,	4494.17,	2.772026e-10,	4494.32,	2.400256e-11,	4494.39,	3.750293e-09,	4494.24,	4.783389e-12,	4493.94,	2.496078e-09,	4494.02,	3.775109e-08,	4494.09,	2.379466e-10
,	,	,	,	4512.73,	2.750068e-10,	4512.88,	2.409928e-11,	4512.96,	3.738105e-09,	4512.81,	4.719504e-12,	4512.51,	2.500846e-09,	4512.59,	3.831335e-08,	4512.66,	2.374289e-10
,	,	,	,	4531.3,	2.731512e-10,	4531.45,	2.340153e-11,	4531.53,	3.768755e-09,	4531.38,	4.282651e-12,	4531.08,	2.514887e-09,	4531.15,	3.730167e-08,	4531.23,	2.345116e-10
,	,	,	,	4549.87,	2.73231e-10,	4550.02,	2.443215e-11,	4550.1,	3.757706e-09,	4549.95,	4.657918e-12,	4549.65,	2.500836e-09,	4549.72,	3.833522e-08,	4549.8,	2.367686e-10
,	,	,	,	4568.44,	2.744082e-10,	4568.59,	2.355833e-11,	4568.66,	3.777391e-09,	4568.51,	4.565886e-12,	4568.21,	2.512188e-09,	4568.29,	3.777107e-08,	4568.36,	2.410778e-10
,	,	,	,	4587.01,	2.749668e-10,	4587.15,	2.390381e-11,	4587.23,	3.747371e-09,	4587.08,	4.65274e-12,	4586.78,	2.498658e-09,	4586.86,	3.73868e-08,	4586.93,	2.34413e-10
,	,	,	,	4605.57,	2.758163e-10,	4605.72,	2.430483e-11,	4605.8,	3.769602e-09,	4605.65,	4.353695e-12,	4605.35,	2.492365e-09,	4605.42,	3.717604e-08,	4605.5,	2.362708e-10
,	,	,	,	4624.14,	2.757468e-10,	4624.29,	2.486959e-11,	4624.37,	3.816603e-09,	4624.22,	4.244473e-12,	4623.92,	2.510866e-09,	4623.99,	3.75581e-08,	4624.07,	2.333336e-10
,	,	,	,	4642.71,	2.706452e-10,	4642.86,	2.440315e-11,	4642.93,	3.76889e-09,	4642.78,	4.760887e-12,	4642.49,	2.505183e-09,	4642.56,	3.818241e-08,	4642.63,	2.341404e-10
,	,	,	,	4661.28,	2.749855e-10,	4661.43,	2.437268e-11,	4661.5,	3.71915e-09,	4661.35,	4.409415e-12,	4661.05,	2.491462e-09,	4661.13,	3.758813e-08,	4661.2,	2.339628e-10
,	,	,	,	4679.85,	2.711708e-10,	4679.99,	2.35029e-11,	4680.07,	3.786905e-09,	4679.92,	4.569525e-12,	4679.62,	2.506189e-09,	4679.7,	3.770252e-08,	4679.77,	2.349369e-10
,	,	,	,	4698.41,	2.75024e-10,	4698.56,	2.411583e-11,	4698.64,	3.778791e-09,	4698.49,	4.592065e-12,	4698.19,	2.500279e-09,	4698.26,	3.747527e-08,	4698.34,	2.343315e-10
,	,	,	,	4716.98,	2.730718e-10,	4717.13,	2.426428e-11,	4717.2,	3.768573e-09,	4717.06,	4.422339e-12,	4716.76,	2.505242e-09,	4716.83,	3.769918e-08,	4716.91,	2.344699e-10
,	,	,	,	4735.55,	2.718216e-10,	4735.7,	2.400358e-11,	4735.77,	3.774081e-09,	4735.62,	4.306553e-12,	4735.33,	2.503211e-09,	4735.4,	3.749019e-08,	4735.47,	2.353946e-10
,	,	,	,	4754.12,	2.757815e-10,	4754.27,	2.375627e-11,	4754.34,	3.792229e-09,	4754.19,	4.770248e-12,	4753.89,	2.511201e-09,	4753.97,	3.755574e-08,	4754.04,	2.373921e-10
,	,	,	,	4772.68,	2.738415e-10,	4772.83,	2.362486e-11,	4772.91,	3.7394e-09,	4772.76,	4.35764e-12,	4772.46,	2.499333e-09,	4772.54,	3.761987e-08,	4772.61,	2.393597e-10
,	,	,	,	4791.25,	2.690182e-10,	4791.4,	2.363885e-11,	4791.48,	3.764063e-09,	4791.33,	4.301629e-12,	4791.03,	2.504949e-09,	4791.1,	3.779535e-08,	4791.18,	2.313971e-10
,	,	,	,	4809.82,	2.733936e-10,	4809.97,	2.475649e-11,	4810.04,	3.750349e-09,	4809.89,	4.38161e-12,	4809.6,	2.511978e-09,	4809.67,	3.762614e-08,	4809.75,	2.337731e-10
,	,	,	,	4828.39,	2.733224e-10,	4828.54,	2.530712e-11,	4828.61,	3.73924e-09,	4828.46,	4.47094e-12,	4828.16,	2.49235e-09,	4828.24,	3.733274e-08,	4828.31,	2.332732e-10
,	,	,	,	4846.96,	2.678052e-10,	4847.11,	2.746571e-11,	4847.18,	3.780555e-09,	4847.03,	4.748231e-12,	4846.73,	2.510808e-09,	4846.81,	3.744971e-08,	4846.88,	2.342644e-10
,	,	,	,	4865.52,	2.684683e-10,	4865.67,	2.8347e-11,	4865.75,	3.768516e-09,	4865.6,	4.165138e-12,	4865.3,	2.511827e-09,	4865.375,	3.810961e-08,	4865.45,	2.338916e-10
,	,	,	,	4884.09,	2.732403e-10,	4884.24,	2.82332e-11,	4884.32,	3.741389e-09,	4884.17,	4.102041e-12,	4883.87,	2.506229e-09,	4883.94,	3.74087e-08,	4884.02,	2.321465e-10
,	,	,	,	4900.41,	2.678222e-10,	4900.56,	2.836352e-11,	4900.63,	3.760062e-09,	4900.48,	4.401961e-12,	4900.19,	2.504814e-09,	4900.26,	3.810235e-08,	4900.34,	2.345588e-10