File: Quantification/development/chip crosscheck/HERonPt_RnD1_2021bW1D3_noSEM_1-2.csv
ixdat version = 0.2.3
name = 2022-07-06 15_54_35 HER_chip crosscheck_newchip_SEM_off AND 2022-07-06 15_54_35 HER_chip crosscheck_newchip_SEM_off_01_01_CVA_DUSB0_C01.mpt AND 2022-07-06 15_54_35 HER_chip crosscheck_newchip_SEM_off_01_02_CP_DUSB0_C01.mpt
technique = EC-MS
tstamp = 1657115675.0
backend_name = BackendBase(none, address=none)
id = 156
timecol 'time/s' for: 'Ewe/V' and 'raw_current' and 'selector'
timecol 'C0M2 time [s]' for: 'M2'
timecol 'C1M4 time [s]' for: 'M4'
timecol 'C3M28 time [s]' for: 'M28'
timecol 'C6M44 time [s]' for: 'M44'
timecol 'C5M40 time [s]' for: 'M40'
timecol 'C4M32 time [s]' for: 'M32'
timecol 'C2M18 time [s]' for: 'M18'
aliases = {"M2": ["M2 [A]"], "M4": ["M4 [A]"], "M18": ["M18 [A]"], "M28": ["M28 [A]"], "M32": ["M32 [A]"], "M40": ["M40 [A]"], "M44": ["M44 [A]"], "t": ["time/s"], "raw_potential": ["Ewe/V"], "raw_current": ["<I>/mA", "I/mA"], "cycle": ["cycle number"]}
N_header_lines = 18

time/s,	Ewe/V,	raw_current,	selector,	C0M2 time [s],	M2,	C1M4 time [s],	M4,	C3M28 time [s],	M28,	C6M44 time [s],	M44,	C5M40 time [s],	M40,	C4M32 time [s],	M32,	C2M18 time [s],	M18
511.0,	0.915123,	0.000321593,	0,	0.510736,	3.025169e-12,	0.585719,	1.996643e-15,	0.734686,	4.651813e-14,	0.957638,	3.381737e-14,	0.883654,	4.463083e-15,	0.80867,	2.869252e-13,	0.659703,	1.169109e-12
529.568,	1.08616,	0.00158436,	0,	57.2602,	3.178214e-12,	57.3352,	5.19366e-13,	57.4842,	8.883642e-14,	57.7072,	3.330303e-14,	57.6332,	3.199481e-16,	57.5582,	2.942841e-13,	57.4092,	1.158681e-12
541.262,	1.32006,	0.00602986,	0,	114.01,	7.218896e-12,	114.084,	3.384734e-13,	114.233,	9.363782e-10,	114.457,	1.308218e-12,	114.382,	1.555932e-11,	114.308,	2.03721e-10,	114.159,	7.287776e-11
552.955,	1.554,	0.0159453,	0,	170.759,	6.442558e-12,	170.833,	3.45808e-13,	170.982,	9.304518e-10,	171.206,	1.271845e-12,	171.131,	1.55762e-11,	171.057,	2.030951e-10,	170.908,	4.968854e-11
564.322,	1.61934,	0.00776673,	0,	227.507,	6.014029e-12,	227.581,	2.088833e-12,	227.73,	9.216664e-10,	227.954,	1.292265e-12,	227.879,	1.547159e-11,	227.805,	2.02983e-10,	227.656,	3.925012e-11
576.016,	1.38543,	-0.000110568,	0,	284.256,	5.719353e-12,	284.331,	9.636331e-13,	284.48,	9.275234e-10,	284.703,	1.211541e-12,	284.629,	1.547476e-11,	284.554,	2.023006e-10,	284.405,	3.330777e-11
587.709,	1.15151,	-0.000562036,	0,	341.005,	5.796832e-12,	341.08,	7.452596e-12,	341.229,	9.031798e-10,	341.452,	1.325001e-12,	341.378,	1.512552e-11,	341.303,	1.984523e-10,	341.154,	3.550114e-11
599.403,	0.917654,	-0.00234837,	0,	397.755,	7.18305e-12,	397.829,	5.589891e-10,	397.978,	1.317713e-11,	398.201,	9.625153e-13,	398.126,	4.76339e-13,	398.053,	9.543445e-12,	397.904,	4.684449e-11
611.097,	0.683742,	-0.0150733,	0,	454.503,	7.04038e-12,	454.577,	5.590525e-10,	454.726,	4.855948e-12,	454.95,	6.225151e-13,	454.875,	1.438717e-13,	454.801,	5.8295e-12,	454.652,	4.559385e-11
622.791,	0.44985,	-0.00134987,	0,	511.253,	7.064778e-12,	511.327,	5.560666e-10,	511.476,	3.919154e-12,	511.7,	5.131169e-13,	511.625,	1.379587e-13,	511.551,	5.329229e-12,	511.402,	4.445128e-11
634.485,	0.215911,	-0.0045465,	0,	568.001,	7.101511e-12,	568.076,	5.454661e-10,	568.225,	3.548589e-12,	568.448,	6.444579e-13,	568.374,	1.204871e-13,	568.299,	1.149897e-11,	568.15,	4.339604e-11
645.537,	0.0256949,	0.0246756,	0,	624.751,	7.396359e-12,	624.826,	5.516733e-10,	624.975,	3.217907e-12,	625.198,	5.346142e-13,	625.124,	1.161698e-13,	625.049,	4.719124e-12,	624.9,	4.248814e-11
657.23,	0.259476,	0.00369229,	0,	681.5,	7.531489e-12,	681.574,	5.514941e-10,	681.723,	3.051234e-12,	681.947,	4.873834e-13,	681.872,	9.890875e-14,	681.798,	4.564131e-12,	681.649,	4.158454e-11
668.924,	0.493301,	0.000218273,	0,	738.249,	7.345843e-12,	738.323,	5.425282e-10,	738.472,	2.98349e-12,	738.696,	7.625758e-13,	738.621,	1.013266e-13,	738.547,	8.130438e-12,	738.398,	4.093407e-11
680.618,	0.727204,	0.000869685,	0,	794.999,	7.656789e-12,	795.073,	5.485714e-10,	795.222,	2.852356e-12,	795.446,	5.495344e-13,	795.371,	7.986573e-14,	795.297,	4.330973e-12,	795.148,	4.041019e-11
691.982,	0.954519,	0.00407752,	1,	851.746,	7.703557e-12,	851.821,	5.472443e-10,	851.97,	2.738081e-12,	852.193,	4.781089e-13,	852.119,	9.958106e-14,	852.044,	4.217444e-12,	851.895,	3.975969e-11
703.676,	1.18839,	0.00658454,	1,	908.496,	7.437466e-12,	908.571,	5.363763e-10,	908.72,	2.668462e-12,	908.943,	6.728726e-13,	908.869,	9.191039e-14,	908.794,	7.716267e-12,	908.645,	3.940674e-11
715.37,	1.42228,	0.00837123,	1,	965.245,	7.742033e-12,	965.319,	5.448499e-10,	965.468,	2.63458e-12,	965.692,	5.005296e-13,	965.617,	9.413788e-14,	965.543,	4.097905e-12,	965.394,	3.890397e-11
727.063,	1.65622,	0.0378852,	1,	1021.99,	7.832893e-12,	1022.07,	5.405021e-10,	1022.22,	2.589297e-12,	1022.44,	4.588917e-13,	1022.37,	9.251384e-14,	1022.29,	4.024985e-12,	1022.14,	3.849964e-11
738.415,	1.51737,	0.000348266,	1,	1078.74,	7.534872e-12,	1078.82,	5.361322e-10,	1078.97,	2.572717e-12,	1079.19,	5.893255e-13,	1079.12,	7.915698e-14,	1079.04,	7.349691e-12,	1078.89,	3.849519e-11
750.109,	1.28345,	-0.000269862,	1,	1135.49,	7.884421e-12,	1135.57,	5.409931e-10,	1135.71,	2.496581e-12,	1135.94,	4.667932e-13,	1135.86,	9.931376e-14,	1135.79,	3.928202e-12,	1135.64,	3.798388e-11
761.802,	1.04955,	-0.00100674,	1,	1192.24,	7.965805e-12,	1192.32,	5.400282e-10,	1192.46,	2.45146e-12,	1192.69,	4.5195e-13,	1192.61,	8.903894e-14,	1192.54,	3.868599e-12,	1192.39,	3.77936e-11
773.496,	0.815628,	-0.00683843,	1,	1248.99,	7.659935e-12,	1249.06,	5.365365e-10,	1249.21,	2.447135e-12,	1249.44,	5.398995e-13,	1249.36,	7.852519e-14,	1249.29,	6.950005e-12,	1249.14,	3.760594e-11
785.19,	0.581787,	-0.00196893,	1,	1305.74,	7.926185e-12,	1305.81,	5.388204e-10,	1305.96,	2.403658e-12,	1306.18,	4.579804e-13,	1306.11,	8.528461e-14,	1306.04,	3.833789e-12,	1305.89,	3.721787e-11
796.884,	0.347882,	-0.00123338,	1,	1362.49,	8.043186e-12,	1362.56,	5.38477e-10,	1362.71,	2.390022e-12,	1362.93,	4.380909e-13,	1362.86,	8.995425e-14,	1362.79,	3.75417e-12,	1362.64,	3.702802e-11
808.578,	0.113909,	-0.00718462,	1,	1419.24,	8.063002e-12,	1419.31,	5.361108e-10,	1419.46,	2.339968e-12,	1419.68,	4.130661e-13,	1419.61,	7.497335e-14,	1419.53,	3.751226e-12,	1419.38,	3.689237e-11
819.629,	0.127603,	0.00550907,	1,	1475.98,	8.071397e-12,	1476.06,	5.385052e-10,	1476.21,	2.309937e-12,	1476.43,	3.999968e-13,	1476.36,	7.914079e-14,	1476.28,	3.717048e-12,	1476.13,	3.672813e-11
831.323,	0.361396,	0.000841276,	1,	1532.73,	8.114402e-12,	1532.81,	5.373804e-10,	1532.96,	2.284301e-12,	1533.18,	4.090931e-13,	1533.11,	7.47263e-14,	1533.03,	3.685579e-12,	1532.88,	3.647825e-11
843.017,	0.595273,	0.00032418,	1,	1589.48,	8.115563e-12,	1589.56,	5.377426e-10,	1589.71,	2.294017e-12,	1589.93,	4.197324e-13,	1589.86,	7.710365e-14,	1589.78,	3.666136e-12,	1589.63,	3.628593e-11
854.711,	0.82916,	0.00185798,	1,	1646.23,	8.162684e-12,	1646.31,	5.363202e-10,	1646.46,	2.267526e-12,	1646.68,	4.143662e-13,	1646.61,	8.427617e-14,	1646.53,	3.632387e-12,	1646.38,	3.632591e-11
866.075,	1.05647,	0.00495772,	2,	1702.98,	8.212944e-12,	1703.06,	5.337797e-10,	1703.2,	2.24176e-12,	1703.43,	4.406019e-13,	1703.35,	8.018569e-14,	1703.28,	3.607609e-12,	1703.13,	3.598421e-11
877.769,	1.29037,	0.00669465,	2,	1759.73,	1.169343e-11,	1759.81,	5.351338e-10,	1759.95,	2.224535e-12,	1760.18,	4.580776e-13,	1760.1,	8.453942e-14,	1760.03,	3.577652e-12,	1759.88,	3.591588e-11
889.462,	1.52428,	0.00893252,	2,	1816.48,	1.187823e-11,	1816.55,	5.343849e-10,	1816.7,	2.212393e-12,	1816.93,	4.451258e-13,	1816.85,	8.99907e-14,	1816.78,	3.538002e-12,	1816.63,	3.580669e-11
900.814,	1.64931,	0.0135675,	2,	1873.23,	1.200537e-11,	1873.3,	5.349903e-10,	1873.45,	2.184789e-12,	1873.67,	4.48706e-13,	1873.6,	7.656095e-14,	1873.53,	3.521559e-12,	1873.38,	3.571502e-11
912.508,	1.4154,	-7.58513e-05,	2,	1929.98,	1.213696e-11,	1930.05,	5.339725e-10,	1930.2,	2.134666e-12,	1930.42,	4.787892e-13,	1930.35,	7.767875e-14,	1930.28,	3.486616e-12,	1930.13,	3.557316e-11
924.201,	1.18149,	-0.000503573,	2,	1986.72,	8.632216e-12,	1986.8,	5.335942e-10,	1986.95,	2.115984e-12,	1987.17,	4.719489e-13,	1987.1,	7.255551e-14,	1987.02,	3.474397e-12,	1986.87,	3.544463e-11
935.895,	0.947617,	-0.00198686,	2,	2043.47,	8.30537e-12,	2043.55,	5.332991e-10,	2043.7,	2.100387e-12,	2043.92,	4.888495e-13,	2043.85,	6.266141e-14,	2043.77,	3.460972e-12,	2043.62,	3.528952e-11
947.589,	0.713741,	-0.0234096,	2,	2100.22,	8.324895e-12,	2100.3,	5.323831e-10,	2100.45,	2.071555e-12,	2100.67,	4.832483e-13,	2100.6,	6.972864e-14,	2100.52,	3.432755e-12,	2100.37,	3.536368e-11
959.283,	0.479848,	-0.000883116,	2,	2156.97,	8.355006e-12,	2157.05,	5.320255e-10,	2157.2,	2.079894e-12,	2157.42,	4.902427e-13,	2157.35,	6.298541e-14,	2157.27,	3.467905e-12,	2157.12,	3.531363e-11
970.977,	0.245879,	-0.00377569,	2,	2213.72,	8.379123e-12,	2213.8,	5.298069e-10,	2213.95,	2.070883e-12,	2214.17,	4.880191e-13,	2214.1,	8.140069e-14,	2214.02,	3.420387e-12,	2213.87,	3.510844e-11
982.64,	0.0126933,	-0.135655,	2,	2270.47,	8.372538e-12,	2270.55,	5.317154e-10,	2270.69,	2.086492e-12,	2270.92,	5.045998e-13,	2270.84,	8.343378e-14,	2270.77,	3.395414e-12,	2270.62,	3.507692e-11
993.722,	0.229526,	0.00368407,	2,	2327.22,	1.637541e-11,	2327.3,	5.315089e-10,	2327.44,	2.052767e-12,	2327.67,	5.030972e-13,	2327.59,	5.915412e-14,	2327.52,	3.425032e-12,	2327.37,	3.50091e-11
1005.42,	0.463314,	0.000252483,	2,	2383.97,	1.65434e-11,	2384.04,	5.306822e-10,	2384.19,	2.062969e-12,	2384.42,	5.181592e-13,	2384.34,	7.253123e-14,	2384.27,	3.398006e-12,	2384.12,	3.494824e-11
1017.11,	0.697221,	0.000744469,	2,	2440.72,	1.660837e-11,	2440.79,	5.307511e-10,	2440.94,	2.060029e-12,	2441.17,	5.121409e-13,	2441.09,	7.399733e-14,	2441.02,	3.404543e-12,	2440.87,	3.495066e-11
1028.47,	0.924533,	0.00409999,	3,	2497.47,	1.659088e-11,	2497.54,	5.295743e-10,	2497.69,	2.069413e-12,	2497.91,	5.188193e-13,	2497.84,	5.695904e-14,	2497.77,	3.368713e-12,	2497.62,	3.478621e-11
1040.17,	1.15837,	0.00522146,	3,	2554.22,	1.669106e-11,	2554.29,	5.309031e-10,	2554.44,	2.047466e-12,	2554.66,	5.300014e-13,	2554.59,	6.247106e-14,	2554.51,	3.38158e-12,	2554.37,	3.493384e-11
1051.86,	1.392289,	0.00639647,	3,	2610.97,	8.625087e-12,	2611.04,	5.288517e-10,	2611.19,	2.058555e-12,	2611.41,	5.309167e-13,	2611.34,	6.704754e-14,	2611.26,	3.349188e-12,	2611.12,	3.459985e-11
1063.56,	1.62623,	0.0264279,	3,	2667.71,	8.520901e-12,	2667.79,	5.297616e-10,	2667.94,	2.035271e-12,	2668.16,	5.381701e-13,	2668.09,	7.174148e-14,	2668.01,	3.359293e-12,	2667.86,	3.468657e-11
1074.91,	1.547379,	0.000766579,	3,	2724.46,	8.535841e-12,	2724.54,	5.29948e-10,	2724.69,	2.041658e-12,	2724.91,	5.456748e-13,	2724.84,	6.758214e-14,	2724.76,	3.365598e-12,	2724.61,	3.462116e-11
1086.6,	1.31342,	-0.000260761,	3,	2781.21,	8.526247e-12,	2781.29,	5.315151e-10,	2781.44,	2.056655e-12,	2781.66,	5.441155e-13,	2781.59,	7.859405e-14,	2781.51,	3.366729e-12,	2781.36,	3.462814e-11
1098.29,	1.07955,	-0.000876122,	3,	2837.96,	8.524679e-12,	2838.04,	5.285228e-10,	2838.18,	2.030156e-12,	2838.41,	5.353392e-13,	2838.33,	7.581172e-14,	2838.26,	3.327966e-12,	2838.11,	3.458009e-11
1109.99,	0.845626,	-0.00496936,	3,	2894.71,	2.440658e-11,	2894.79,	5.280443e-10,	2894.93,	2.030821e-12,	2895.16,	5.526245e-13,	2895.08,	6.464996e-14,	2895.01,	3.314763e-12,	2894.86,	3.47923e-11
1121.68,	0.611775,	-0.00267282,	3,	2951.46,	2.517383e-11,	2951.53,	5.286382e-10,	2951.68,	2.011624e-12,	2951.91,	5.611782e-13,	2951.83,	8.937107e-14,	2951.76,	3.327383e-12,	2951.61,	3.46208e-11
1133.38,	0.377856,	-0.00101451,	3,	3008.21,	2.529392e-11,	3008.28,	5.276269e-10,	3008.43,	1.999267e-12,	3008.65,	5.569216e-13,	3008.58,	7.941215e-14,	3008.51,	3.307655e-12,	3008.36,	3.460002e-11
1145.07,	0.1439,	-0.00555757,	3,	3064.96,	2.528722e-11,	3065.03,	5.268934e-10,	3065.18,	2.009315e-12,	3065.4,	5.703392e-13,	3065.33,	7.50746e-14,	3065.26,	3.331036e-12,	3065.11,	3.461474e-11
1156.12,	0.0976389,	0.00646817,	3,	3121.7,	2.532911e-11,	3121.78,	5.278583e-10,	3121.93,	2.042667e-12,	3122.15,	5.599834e-13,	3122.08,	7.281876e-14,	3122,	3.311154e-12,	3121.85,	3.439401e-11
1167.82,	0.331451,	0.00230893,	3,	3178.45,	1.100416e-11,	3178.53,	5.267723e-10,	3178.68,	2.026706e-12,	3178.9,	5.527379e-13,	3178.83,	7.309011e-14,	3178.75,	3.317063e-12,	3178.6,	3.439518e-11
1179.51,	0.565267,	0.000307777,	3,	3235.2,	8.6974e-12,	3235.28,	5.265714e-10,	3235.43,	2.032874e-12,	3235.65,	5.739558e-13,	3235.58,	7.324806e-14,	3235.5,	3.285356e-12,	3235.35,	3.435835e-11
1191.2,	0.79913,	0.00126381,	3,	3291.95,	8.64168e-12,	3292.03,	5.276467e-10,	3292.17,	2.022465e-12,	3292.4,	5.473798e-13,	3292.32,	7.826194e-14,	3292.25,	3.305614e-12,	3292.1,	3.416542e-11
1202.57,	1.02649,	0.00454494,	4,	3348.7,	8.603221e-12,	3348.78,	5.271261e-10,	3348.92,	2.01247e-12,	3349.15,	5.630937e-13,	3349.07,	8.211753e-14,	3349.0,	3.286563e-12,	3348.85,	3.414423e-11
1214.26,	1.26036,	0.00555939,	4,	3405.45,	8.624772e-12,	3405.53,	5.251384e-10,	3405.67,	2.03078e-12,	3405.9,	5.745188e-13,	3405.82,	8.123058e-14,	3405.75,	3.282128e-12,	3405.6,	3.426529e-11
1225.95,	1.49427,	0.00695144,	4,	3462.2,	8.624654e-12,	3462.27,	5.28148e-10,	3462.42,	2.034388e-12,	3462.65,	5.90099e-13,	3462.57,	4.733626e-14,	3462.5,	3.291342e-12,	3462.35,	3.422338e-11
1237.31,	1.67931,	0.0410995,	4,	3518.95,	3.384364e-11,	3519.02,	5.261989e-10,	3519.17,	2.028978e-12,	3519.4,	5.759727e-13,	3519.32,	7.863454e-14,	3519.25,	3.297546e-12,	3519.1,	3.448393e-11
1249,	1.44539,	-4.65823e-05,	4,	3575.7,	3.409526e-11,	3575.77,	5.270308e-10,	3575.92,	2.041533e-12,	3576.14,	5.759079e-13,	3576.07,	7.643135e-14,	3576,	3.30103e-12,	3575.85,	3.44521e-11
1260.69,	1.21147,	-0.000454533,	4,	3632.45,	3.417138e-11,	3632.52,	5.251759e-10,	3632.67,	2.020675e-12,	3632.89,	5.621622e-13,	3632.82,	5.802012e-14,	3632.74,	3.299191e-12,	3632.6,	3.448529e-11
1272.39,	0.977602,	-0.00164674,	4,	3689.2,	3.418721e-11,	3689.27,	5.240005e-10,	3689.42,	2.023041e-12,	3689.64,	5.730324e-13,	3689.57,	5.388913e-14,	3689.49,	3.270517e-12,	3689.35,	3.433653e-11
1284.08,	0.743688,	-0.0246603,	4,	3745.94,	3.432508e-11,	3746.02,	5.242238e-10,	3746.17,	2.018193e-12,	3746.39,	5.824891e-13,	3746.32,	7.837939e-14,	3746.24,	3.268974e-12,	3746.09,	3.465856e-11
1295.77,	0.509813,	-0.00100322,	4,	3802.69,	9.141504e-12,	3802.77,	5.238774e-10,	3802.92,	2.020368e-12,	3803.14,	5.872559e-13,	3803.07,	6.403028e-14,	3802.99,	3.257476e-12,	3802.84,	3.408437e-11
1307.47,	0.275879,	-0.00394775,	4,	3859.44,	8.793591e-12,	3859.52,	5.251699e-10,	3859.67,	2.010919e-12,	3859.89,	5.833316e-13,	3859.82,	8.690055e-14,	3859.74,	3.272489e-12,	3859.59,	3.410815e-11
1319.16,	0.0419662,	-0.0138016,	4,	3916.19,	8.73255e-12,	3916.27,	5.247361e-10,	3916.41,	2.015406e-12,	3916.64,	5.954329e-13,	3916.56,	8.020997e-14,	3916.49,	3.264405e-12,	3916.34,	3.409962e-11
1330.21,	0.199498,	0.0036361,	4,	3972.94,	8.695779e-12,	3973.02,	5.241937e-10,	3973.16,	2.019347e-12,	3973.39,	5.908686e-13,	3973.31,	6.527769e-14,	3973.24,	3.274129e-12,	3973.09,	3.402713e-11
1341.91,	0.433334,	0.000300573,	4,	4029.69,	8.672589e-12,	4029.77,	5.235514e-10,	4029.91,	2.01605e-12,	4030.14,	6.011798e-13,	4030.06,	7.319135e-14,	4029.99,	3.270476e-12,	4029.84,	3.401005e-11
1353.6,	0.667237,	0.000673835,	4,	4086.44,	4.04717e-11,	4086.51,	5.242826e-10,	4086.66,	1.996643e-12,	4086.89,	5.923185e-13,	4086.81,	7.181435e-14,	4086.74,	3.274445e-12,	4086.59,	3.437827e-11
1365.3,	0.901146,	0.00424768,	4,	4143.19,	4.259175e-11,	4143.26,	5.234662e-10,	4143.41,	2.041832e-12,	4143.63,	5.798526e-13,	4143.56,	7.266486e-14,	4143.49,	3.249084e-12,	4143.34,	3.446509e-11
1400.54,	0.8808192,	2.18052e-06,	5,	4199.94,	4.262828e-11,	4200.01,	5.225897e-10,	4200.16,	1.98655e-12,	4200.38,	5.903421e-13,	4200.31,	7.194396e-14,	4200.23,	3.260465e-12,	4200.09,	3.434386e-11
1439.54,	0.889568,	2.14657e-06,	5,	4256.69,	4.277144e-11,	4256.76,	5.230788e-10,	4256.91,	2.003629e-12,	4257.13,	5.706794e-13,	4257.06,	6.501443e-14,	4256.98,	3.249955e-12,	4256.84,	3.445236e-11
1478.54,	0.898393,	2.1996e-06,	5,	4313.43,	4.291464e-11,	4313.51,	5.234935e-10,	4313.66,	2.016706e-12,	4313.88,	5.973323e-13,	4313.81,	7.954984e-14,	4313.73,	3.24868e-12,	4313.58,	3.446093e-11
1517.54,	0.905361,	2.42389e-06,	5,	4370.18,	2.677143e-11,	4370.26,	5.237054e-10,	4370.41,	1.999474e-12,	4370.63,	6.018076e-13,	4370.56,	7.689709e-14,	4370.48,	3.242916e-12,	4370.33,	3.429421e-11
1556.54,	0.910737,	2.384601e-06,	5,	4426.93,	9.077329e-12,	4427.01,	5.244515e-10,	4427.16,	2.033951e-12,	4427.38,	5.871669e-13,	4427.31,	7.178195e-14,	4427.23,	3.224372e-12,	4427.08,	3.382135e-11
1595.54,	0.914943,	2.10919e-06,	5,	4483.68,	8.827894e-12,	4483.76,	5.22064e-10,	4483.9,	2.034871e-12,	4484.13,	5.899329e-13,	4484.05,	7.516369e-14,	4483.98,	3.234282e-12,	4483.83,	3.389333e-11
1634.54,	0.918049,	2.08974e-06,	5,	4540.43,	8.78778e-12,	4540.5,	5.220295e-10,	4540.65,	2.025276e-12,	4540.88,	6.026135e-13,	4540.8,	6.782106e-14,	4540.73,	3.238571e-12,	4540.58,	3.38236e-11
1667.22,	0.859971,	-0.00249637,	6,	4597.18,	8.76552e-12,	4597.25,	5.21661e-10,	4597.4,	2.007294e-12,	4597.63,	5.842914e-13,	4597.55,	7.460884e-14,	4597.48,	3.226372e-12,	4597.33,	3.388107e-11
1679.16,	0.469096,	-0.00249679,	6,	4653.93,	8.776762e-12,	4654,	5.236899e-10,	4654.15,	2.002223e-12,	4654.38,	5.862515e-13,	4654.3,	7.413905e-14,	4654.23,	3.241308e-12,	4654.08,	3.398931e-11
1701.5,	0.102491,	-0.00249633,	6,	4710.68,	8.742736e-12,	4710.75,	5.229096e-10,	4710.9,	2.023356e-12,	4711.125,	6.930335e-13,	4711.05,	8.874328e-14,	4710.98,	3.50463e-12,	4710.83,	3.384686e-11
1740.5,	0.0401419,	-0.00249656,	6,	4767.43,	8.651882e-12,	4767.5,	5.258317e-10,	4767.65,	2.008789e-12,	4767.87,	6.354872e-13,	4767.8,	8.971123e-14,	4767.72,	3.345349e-12,	4767.58,	3.407536e-11
1779.5,	0.039183,	-0.00249595,	6,	4824.18,	8.74419e-12,	4824.25,	5.250451e-10,	4824.4,	2.00968e-12,	4824.62,	6.110577e-13,	4824.55,	7.480728e-14,	4824.47,	3.260331e-12,	4824.33,	3.412916e-11
1818.5,	0.0388889,	-0.0024961,	6,	4880.92,	8.691519e-12,	4881.0,	5.223431e-10,	4881.15,	1.998854e-12,	4881.37,	6.870152e-13,	4881.3,	6.445146e-14,	4881.22,	3.694971e-12,	4881.07,	3.381018e-11
1857.5,	0.0387017,	-0.00249629,	6,	4937.67,	8.639392e-12,	4937.75,	5.254976e-10,	4937.9,	2.00584e-12,	4938.12,	6.372368e-13,	4938.05,	6.81977e-14,	4937.97,	3.369033e-12,	4937.82,	3.418301e-11
1896.5,	0.038396,	-0.00249656,	6,	4994.42,	8.691802e-12,	4994.5,	5.249561e-10,	4994.65,	2.004791e-12,	4994.87,	6.130543e-13,	4994.8,	8.519548e-14,	4994.72,	3.261437e-12,	4994.57,	3.40044e-11
1935.5,	0.03827,	-0.00249656,	6,	5051.17,	8.679272e-12,	5051.25,	5.225123e-10,	5051.4,	2.030492e-12,	5051.62,	6.700052e-13,	5051.55,	7.332902e-14,	5051.47,	4.077079e-12,	5051.32,	3.403172e-11
1973.08,	0.0560539,	2.3228e-06,	7,	5107.92,	8.62009e-12,	5108,	5.263441e-10,	5108.14,	2.015941e-12,	5108.37,	6.382817e-13,	5108.29,	6.302183e-14,	5108.22,	3.348953e-12,	5108.07,	3.417227e-11
2012.08,	0.0984106,	2.4628e-06,	7,	5164.67,	8.71573e-12,	5164.74,	5.256148e-10,	5164.89,	1.988526e-12,	5165.12,	6.214621e-13,	5165.04,	6.839615e-14,	5164.97,	3.310652e-12,	5164.82,	3.394082e-11
2051.08,	0.121715,	2.25033e-06,	7,	5221.42,	8.661688e-12,	5221.49,	5.207157e-10,	5221.64,	2.007124e-12,	5221.87,	6.768497e-13,	5221.79,	6.235358e-14,	5221.72,	4.641396e-12,	5221.57,	3.411024e-11
2090.08,	0.142334,	2.41283e-06,	7,	5278.17,	8.584215e-12,	5278.24,	5.253797e-10,	5278.39,	2.012871e-12,	5278.62,	6.329762e-13,	5278.54,	6.231712e-14,	5278.47,	3.33571e-12,	5278.32,	3.416945e-11
2129.08,	0.165558,	2.279701e-06,	7,	5334.92,	8.712129e-12,	5334.99,	5.239252e-10,	5335.14,	2.013567e-12,	5335.36,	6.013377e-13,	5335.29,	7.104889e-14,	5335.21,	3.293444e-12,	5335.07,	3.412392e-11
2168.08,	0.1918115,	2.358662e-06,	7,	5391.67,	8.587172e-12,	5391.74,	5.184906e-10,	5391.89,	2.003937e-12,	5392.11,	6.761085e-13,	5392.04,	5.970084e-14,	5391.96,	5.588821e-12,	5391.82,	3.390042e-11
2207.08,	0.219953,	2.199977e-06,	7,	5448.41,	8.591821e-12,	5448.49,	5.250756e-10,	5448.64,	2.032837e-12,	5448.86,	6.237666e-13,	5448.79,	6.081863e-14,	5448.71,	3.359531e-12,	5448.56,	3.418949e-11
2246.08,	0.249717,	2.382312e-06,	7,	5505.16,	8.69154e-12,	5505.24,	5.238517e-10,	5505.39,	2.013648e-12,	5505.61,	6.198381e-13,	5505.54,	6.081053e-14,	5505.46,	3.299292e-12,	5505.31,	3.408626e-11
2272.91,	0.0833811,	-0.0049968,	8,	5561.91,	8.699093e-12,	5561.99,	5.252107e-10,	5562.14,	2.019987e-12,	5562.36,	6.236816e-13,	5562.29,	7.349914e-14,	5562.21,	3.293561e-12,	5562.06,	3.399418e-11
2311.02,	0.0290857,	-0.0049963,	8,	5618.66,	8.73061e-12,	5618.74,	5.23676e-10,	5618.88,	2.01635e-12,	5619.11,	6.201742e-13,	5619.03,	7.274585e-14,	5618.96,	3.306837e-12,	5618.81,	3.395459e-11
2350.02,	0.0289291,	-0.00499669,	8,	5675.41,	8.732897e-12,	5675.49,	5.217013e-10,	5675.63,	2.006229e-12,	5675.86,	6.130341e-13,	5675.78,	7.04009e-14,	5675.71,	3.303957e-12,	5675.56,	3.370044e-11
2389.02,	0.028845,	-0.00499707,	8,	5732.16,	8.741354e-12,	5732.23,	5.240976e-10,	5732.38,	2.02643e-12,	5732.61,	5.988915e-13,	5732.53,	7.112989e-14,	5732.46,	3.255098e-12,	5732.31,	3.389186e-11
2428.02,	0.0287763,	-0.00499646,	8,	5788.91,	8.756825e-12,	5788.98,	5.223527e-10,	5789.13,	2.009032e-12,	5789.36,	6.015483e-13,	5789.28,	7.556867e-14,	5789.21,	3.250984e-12,	5789.06,	3.392917e-11
2467.02,	0.0288183,	-0.004996419,	8,	5845.66,	8.768858e-12,	5845.73,	5.238907e-10,	5845.88,	1.996408e-12,	5846.11,	6.058049e-13,	5846.03,	7.405804e-14,	5845.96,	3.256747e-12,	5845.81,	3.385554e-11
2506.02,	0.0287495,	-0.0049963,	8,	5902.41,	1.237902e-11,	5902.48,	5.222212e-10,	5902.63,	2.002637e-12,	5902.85,	5.962064e-13,	5902.78,	7.165235e-14,	5902.7,	3.262069e-12,	5902.56,	3.400124e-11
2545.02,	0.0287725,	-0.00499623,	8,	5959.16,	1.261702e-11,	5959.23,	5.241164e-10,	5959.38,	1.99857e-12,	5959.6,	5.942462e-13,	5959.53,	6.949776e-14,	5959.45,	3.236651e-12,	5959.31,	3.391078e-11
2582.08,	0.0642028,	2.32815e-06,	9,	6015.9,	1.265426e-11,	6015.98,	5.239701e-10,	6016.13,	1.981905e-12,	6016.35,	5.806423e-13,	6016.28,	4.769669e-14,	6016.2,	3.234727e-12,	6016.05,	3.373017e-11
2621.08,	0.0985939,	2.405581e-06,	9,	6072.65,	1.26914e-11,	6072.73,	5.219915e-10,	6072.88,	2.038414e-12,	6073.1,	6.081863e-13,	6073.03,	8.946419e-14,	6072.95,	3.237599e-12,	6072.8,	3.360161e-11
2660.08,	0.119534,	2.37888e-06,	9,	6129.4,	1.024893e-11,	6129.48,	5.221146e-10,	6129.63,	2.003548e-12,	6129.85,	6.0363e-13,	6129.78,	7.369759e-14,	6129.7,	3.225137e-12,	6129.55,	3.371682e-11
2699.08,	0.137963,	2.51811e-06,	9,	6186.15,	8.827744e-12,	6186.23,	5.229999e-10,	6186.375,	1.975801e-12,	6186.6,	5.933309e-13,	6186.52,	5.45857e-14,	6186.45,	3.271068e-12,	6186.3,	3.369147e-11
2738.08,	0.157497,	2.43533e-06,	9,	6242.9,	8.810584e-12,	6242.98,	5.226615e-10,	6243.125,	1.993326e-12,	6243.35,	5.994504e-13,	6243.27,	8.775913e-14,	6243.2,	3.231082e-12,	6243.05,	3.377474e-11
2777.08,	0.179323,	2.44907e-06,	9,	6299.65,	8.843362e-12,	6299.72,	5.233602e-10,	6299.87,	2.030509e-12,	6300.1,	5.972513e-13,	6300.02,	8.811958e-14,	6299.95,	3.23431e-12,	6299.8,	3.372077e-11
2816.08,	0.20315,	2.48607e-06,	9,	6356.4,	8.803391e-12,	6356.47,	5.227136e-10,	6356.62,	2.013073e-12,	6356.85,	5.975064e-13,	6356.77,	7.431317e-14,	6356.7,	3.242519e-12,	6356.55,	3.379222e-11
2855.08,	0.229461,	2.5986e-06,	9,	6413.15,	8.836213e-12,	6413.22,	5.225578e-10,	6413.37,	2.01552e-12,	6413.6,	5.853079e-13,	6413.52,	6.759019e-14,	6413.45,	3.211594e-12,	6413.3,	3.376694e-11
2877.84,	0.0231909,	-0.00999637,	10,	6469.9,	1.676678e-11,	6469.97,	5.203534e-10,	6470.12,	1.995857e-12,	6470.34,	5.962145e-13,	6470.27,	6.884164e-14,	6470.19,	3.224072e-12,	6470.05,	3.37054e-11
2916.84,	0.0200696,	-0.00999672,	10,	6526.65,	1.696928e-11,	6526.72,	5.216939e-10,	6526.87,	2.007683e-12,	6527.09,	6.089314e-13,	6527.02,	7.605062e-14,	6526.94,	3.217089e-12,	6526.8,	3.352201e-11
2955.84,	0.0199856,	-0.00999664,	10,	6583.39,	1.695949e-11,	6583.47,	5.20122e-10,	6583.62,	1.977255e-12,	6583.84,	6.007627e-13,	6583.77,	8.045295e-14,	6583.69,	3.21485e-12,	6583.54,	3.380501e-11
2994.84,	0.0199703,	-0.00999584,	10,	6640.14,	1.70239e-11,	6640.22,	5.207741e-10,	6640.37,	1.991977e-12,	6640.59,	6.011798e-13,	6640.52,	7.860211e-14,	6640.44,	3.210488e-12,	6640.29,	3.389607e-11
3033.84,	0.0199626,	-0.00999611,	10,	6696.89,	1.705635e-11,	6696.97,	5.229389e-10,	6697.12,	1.983022e-12,	6697.34,	6.036624e-13,	6697.27,	7.217478e-14,	6697.19,	3.218268e-12,	6697.04,	3.385323e-11
3072.84,	0.01991679,	-0.00999626,	10,	6753.64,	9.136342e-12,	6753.71,	5.208919e-10,	6753.86,	1.997319e-12,	6754.09,	5.956516e-13,	6754.01,	7.436988e-14,	6753.94,	3.218875e-12,	6753.79,	3.355096e-11
3111.84,	0.019913,	-0.00999595,	10,	6810.39,	8.891637e-12,	6810.47,	5.217187e-10,	6810.62,	1.964688e-12,	6810.84,	5.933634e-13,	6810.76,	7.561322e-14,	6810.69,	3.214465e-12,	6810.54,	3.374443e-11
3150.84,	0.0199015,	-0.00999641,	10,	6867.14,	8.844057e-12,	6867.21,	5.204943e-10,	6867.36,	2.020416e-12,	6867.59,	5.969273e-13,	6867.51,	8.167201e-14,	6867.44,	3.205749e-12,	6867.29,	3.340778e-11
3188.08,	0.0664721,	2.52421e-06,	11,	6923.89,	8.853219e-12,	6923.96,	5.219462e-10,	6924.11,	1.987684e-12,	6924.34,	6.07676e-13,	6924.26,	7.356393e-14,	6924.19,	3.196038e-12,	6924.04,	3.37046e-11
3227.08,	0.09747839,	2.50247e-06,	11,	6980.64,	8.848845e-12,	6980.71,	5.216964e-10,	6980.86,	1.985076e-12,	6981.09,	5.895644e-13,	6981.01,	5.363801e-14,	6980.94,	3.20383e-12,	6980.79,	3.345349e-11
3266.08,	0.117249,	2.467e-06,	11,	7037.39,	2.236699e-11,	7037.46,	5.214277e-10,	7037.61,	1.99433e-12,	7037.84,	5.910427e-13,	7037.76,	7.1057e-14,	7037.69,	3.201161e-12,	7037.54,	3.380072e-11
3305.08,	0.134601,	2.59669e-06,	11,	7094.13,	2.540752e-11,	7094.21,	5.216807e-10,	7094.36,	1.992714e-12,	7094.58,	5.891837e-13,	7094.51,	6.320408e-14,	7094.43,	3.197196e-12,	7094.28,	3.388783e-11
3344.08,	0.1525608,	2.55549e-06,	11,	7150.88,	2.558135e-11,	7150.96,	5.207052e-10,	7151.11,	1.999356e-12,	7151.33,	5.854577e-13,	7151.26,	6.181088e-14,	7151.18,	3.210075e-12,	7151.03,	3.382792e-11
3383.08,	0.172507,	2.38002e-06,	11,	7207.63,	2.523124e-11,	7207.71,	5.035967e-10,	7207.86,	9.760878e-12,	7208.08,	6.030671e-13,	7208.01,	1.772355e-13,	7207.93,	4.371643e-12,	7207.78,	3.397732e-11
3422.08,	0.194173,	2.39604e-06,	11,	7264.38,	2.557342e-11,	7264.46,	5.211428e-10,	7264.61,	1.999417e-12,	7264.83,	5.755879e-13,	7264.76,	7.14134e-14,	7264.68,	3.221784e-12,	7264.53,	3.348711e-11
3461.08,	0.218054,	2.28809e-06,	11,	7321.13,	2.565508e-11,	7321.21,	5.219919e-10,	7321.36,	2.007165e-12,	7321.58,	6.011393e-13,	7321.51,	7.305364e-14,	7321.43,	3.221399e-12,	7321.28,	3.396939e-11
3483.45,	0.0158748,	-0.0149956,	12,	7377.88,	9.037967e-12,	7377.95,	5.207347e-10,	7378.1,	2.003726e-12,	7378.33,	5.903137e-13,	7378.25,	6.592161e-14,	7378.18,	3.203251e-12,	7378.03,	3.360839e-11
3522.45,	0.0150916,	-0.0149967,	12,	7434.63,	8.948649e-12,	7434.7,	5.214342e-10,	7434.85,	2.006925e-12,	7435.08,	5.916016e-13,	7435,	8.072025e-14,	7434.93,	3.204247e-12,	7434.78,	3.357712e-11
3561.45,	0.0150038,	-0.0149962,	12,	7491.38,	8.91507e-12,	7491.45,	5.218552e-10,	7491.6,	1.985043e-12,	7491.83,	5.973728e-13,	7491.75,	6.400597e-14,	7491.68,	3.197723e-12,	7491.53,	3.356046e-11
3600.45,	0.0150076,	-0.01499583,	12,	7548.13,	8.892581e-12,	7548.2,	5.216358e-10,	7548.35,	2.010441e-12,	7548.58,	5.8969e-13,	7548.5,	8.334465e-14,	7548.43,	3.188825e-12,	7548.28,	3.353232e-11
3639.45,	0.0149656,	-0.0149963,	12,	7604.88,	8.905451e-12,	7604.95,	5.220979e-10,	7605.1,	2.002187e-12,	7605.33,	6.012972e-13,	7605.25,	8.795354e-14,	7605.18,	3.19541e-12,	7605.03,	3.348246e-11
3678.45,	0.0149999,	-0.0149963,	12,	7661.63,	3.377855e-11,	7661.7,	5.210165e-10,	7661.85,	1.973704e-12,	7662.07,	5.833274e-13,	7662,	9.178887e-14,	7661.92,	3.199181e-12,	7661.78,	3.376196e-11
3717.45,	0.0149732,	-0.0149961,	12,	7718.375,	3.432148e-11,	7718.45,	5.216747e-10,	7718.6,	2.001268e-12,	7718.82,	5.80452e-13,	7718.75,	8.21742e-14,	7718.67,	3.228381e-12,	7718.52,	3.374312e-11
3756.45,	0.0149503,	-0.0149959,	12,	7775.12,	3.424637e-11,	7775.2,	5.198625e-10,	7775.35,	2.008659e-12,	7775.57,	5.952789e-13,	7775.5,	7.743167e-14,	7775.42,	3.190574e-12,	7775.27,	3.380692e-11
3794.08,	0.069559,	2.4937e-06,	13,	7831.87,	3.440351e-11,	7831.95,	5.209775e-10,	7832.1,	2.008371e-12,	7832.32,	6.066716e-13,	7832.24,	7.797032e-14,	7832.17,	3.206973e-12,	7832.02,	3.396915e-11
3833.08,	0.0970047,	2.56999e-06,	13,	7888.62,	3.447414e-11,	7888.7,	5.208469e-10,	7888.85,	2.010453e-12,	7889.07,	5.942381e-13,	7888.99,	8.899438e-14,	7888.92,	3.229952e-12,	7888.77,	3.380866e-11
3872.08,	0.115663,	2.52192e-06,	13,	7945.37,	1.011913e-11,	7945.44,	5.214241e-10,	7945.59,	2.018189e-12,	7945.82,	5.860004e-13,	7945.74,	7.628552e-14,	7945.67,	3.226396e-12,	7945.52,	3.366013e-11
3911.08,	0.1322898,	2.65505e-06,	13,	8002.12,	9.089175e-12,	8002.19,	5.211605e-10,	8002.34,	2.023036e-12,	8002.57,	6.05007e-13,	8002.49,	8.874731e-14,	8002.42,	3.207851e-12,	8002.27,	3.348871e-11
3950.08,	0.14918,	2.50972e-06,	13,	8058.87,	8.972774e-12,	8058.94,	5.206293e-10,	8059.09,	2.032736e-12,	8059.32,	5.968705e-13,	8059.24,	8.278168e-14,	8059.17,	3.20059e-12,	8059.02,	3.347722e-11
3989.08,	0.167598,	2.4464e-06,	13,	8115.62,	8.950831e-12,	8115.69,	5.223205e-10,	8115.84,	2.053059e-12,	8116.07,	5.885034e-13,	8115.99,	7.308601e-14,	8115.92,	3.187233e-12,	8115.77,	3.343856e-11
4028.08,	0.187544,	2.60966e-06,	13,	8172.37,	8.923324e-12,	8172.44,	5.198649e-10,	8172.59,	2.01405e-12,	8172.81,	6.056915e-13,	8172.74,	8.855696e-14,	8172.66,	3.210577e-12,	8172.52,	3.35363e-11
4066.08,	0.208652,	-0.000257059,	14,	8229.12,	2.716857e-11,	8229.19,	5.199552e-10,	8229.34,	2.048454e-12,	8229.56,	5.915286e-13,	8229.49,	7.270936e-14,	8229.41,	3.244334e-12,	8229.26,	3.372014e-11
4089.64,	0.0119169,	-0.019996,	14,	8285.87,	4.267763e-11,	8285.94,	5.205989e-10,	8286.09,	2.025685e-12,	8286.31,	6.108632e-13,	8286.24,	8.673042e-14,	8286.16,	3.211731e-12,	8286.01,	3.407679e-11
4128.64,	0.0116533,	-0.0199964,	14,	8342.61,	4.288455e-11,	8342.69,	5.214288e-10,	8342.84,	2.019837e-12,	8343.06,	5.957163e-13,	8342.98,	7.083827e-14,	8342.91,	3.230118e-12,	8342.76,	3.408257e-11
4167.64,	0.0116342,	-0.0199959,	14,	8399.36,	4.297412e-11,	8399.44,	5.206747e-10,	8399.59,	1.995728e-12,	8399.81,	5.938817e-13,	8399.73,	7.386362e-14,	8399.66,	3.216847e-12,	8399.51,	3.389836e-11
4206.64,	0.0116227,	-0.0199966,	14,	8456.11,	4.298495e-11,	8456.19,	5.188279e-10,	8456.34,	2.028285e-12,	8456.56,	6.006816e-13,	8456.48,	8.131154e-14,	8456.41,	3.198115e-12,	8456.26,	3.39141e-11
4245.64,	0.0115883,	-0.0199963,	14,	8512.86,	4.306382e-11,	8512.93,	5.209383e-10,	8513.08,	2.008388e-12,	8513.31,	5.87102e-13,	8513.23,	8.065949e-14,	8513.16,	3.227627e-12,	8513.01,	3.398289e-11
4284.64,	0.0115998,	-0.0199961,	14,	8569.61,	9.50457e-12,	8569.68,	5.191919e-10,	8569.83,	2.035101e-12,	8570.06,	5.893052e-13,	8569.98,	7.071273e-14,	8569.91,	3.205207e-12,	8569.76,	3.354418e-11
4323.64,	0.0115922,	-0.01999609,	14,	8626.36,	9.083169e-12,	8626.43,	5.209302e-10,	8626.58,	2.017824e-12,	8626.81,	5.957123e-13,	8626.73,	7.021864e-14,	8626.66,	3.224185e-12,	8626.51,	3.358315e-11
4362.64,	0.0116227,	-0.0199961,	14,	8683.11,	8.999248e-12,	8683.18,	5.206417e-10,	8683.33,	2.031412e-12,	8683.56,	6.045534e-13,	8683.48,	7.115418e-14,	8683.41,	3.231325e-12,	8683.26,	3.340397e-11
4400.08,	0.0674845,	2.6314e-06,	15,	8739.86,	8.998905e-12,	8739.93,	5.215996e-10,	8740.08,	2.032201e-12,	8740.31,	6.08486e-13,	8740.23,	8.17611e-14,	8740.16,	3.220062e-12,	8740.01,	3.369316e-11
4439.08,	0.0932072,	2.38384e-06,	15,	8796.61,	8.965682e-12,	8796.68,	5.193425e-10,	8796.83,	2.02498e-12,	8797.05,	5.964534e-13,	8796.98,	7.092738e-14,	8796.9,	3.215595e-12,	8796.76,	3.339705e-11
4478.08,	0.113024,	2.356755e-06,	15,	8853.36,	8.931958e-12,	8853.43,	5.206422e-10,	8853.58,	2.0366e-12,	8853.8,	5.940761e-13,	8853.73,	7.386362e-14,	8853.65,	3.203449e-12,	8853.5,	3.337704e-11
4517.08,	0.129402,	2.56541e-06,	15,	8910.1,	8.964132e-12,	8910.18,	5.201756e-10,	8910.33,	2.036033e-12,	8910.55,	5.89767e-13,	8910.48,	6.929522e-14,	8910.4,	3.215631e-12,	8910.25,	3.361919e-11
4556.08,	0.145669,	2.3991e-06,	15,	8966.85,	8.952849e-12,	8966.93,	5.19861e-10,	8967.08,	2.059596e-12,	8967.3,	5.915408e-13,	8967.22,	7.822949e-14,	8967.15,	3.211687e-12,	8967,	3.351588e-11
4595.08,	0.163258,	2.39337e-06,	15,	9023.6,	8.939204e-12,	9023.68,	5.21659e-10,	9023.83,	2.033477e-12,	9024.05,	5.91148e-13,	9023.97,	8.059064e-14,	9023.9,	3.186524e-12,	9023.75,	3.335309e-11
4634.08,	0.182406,	2.42961e-06,	15,	9080.35,	8.964354e-12,	9080.43,	5.202808e-10,	9080.58,	2.028982e-12,	9080.8,	5.887908e-13,	9080.72,	6.504679e-14,	9080.65,	3.233723e-12,	9080.5,	3.355079e-11
4673.13,	0.91233,	0.000672873,	16,	9137.1,	8.961758e-12,	9137.17,	5.199837e-10,	9137.32,	2.062317e-12,	9137.55,	5.972917e-13,	9137.47,	7.244612e-14,	9137.4,	3.196021e-12,	9137.25,	3.349179e-11
4687.5,	1.11941,	0.00439331,	16,	9193.85,	8.939338e-12,	9193.92,	5.204154e-10,	9194.07,	2.006622e-12,	9194.3,	6.07271e-13,	9194.22,	6.651694e-14,	9194.15,	3.220159e-12,	9194,	3.334018e-11
4699.19,	1.3533,	0.00566119,	16,	9250.6,	8.954578e-12,	9250.67,	5.17801e-10,	9250.82,	2.032748e-12,	9251.05,	6.102801e-13,	9250.97,	6.985007e-14,	9250.9,	3.203161e-12,	9250.75,	3.330881e-11
4710.89,	1.58728,	0.0158252,	16,	9307.35,	8.930796e-12,	9307.42,	5.191136e-10,	9307.57,	2.020501e-12,	9307.8,	6.308216e-13,	9307.72,	6.800328e-14,	9307.65,	3.211456e-12,	9307.5,	3.353827e-11
4721.8,	1.59508,	0.00318769,	16,	9364.1,	8.940573e-12,	9364.17,	5.198766e-10,	9364.32,	2.028674e-12,	9364.54,	6.16995e-13,	9364.47,	7.403777e-14,	9364.39,	3.196868e-12,	9364.24,	3.360991e-11
4733.5,	1.36112,	-0.000179569,	16,	9420.85,	8.967643e-12,	9420.92,	5.202929e-10,	9421.07,	2.024187e-12,	9421.29,	5.993694e-13,	9421.22,	9.211689e-14,	9421.14,	3.216438e-12,	9420.99,	3.34438e-11
4745.19,	1.12721,	-0.000676849,	16,	9477.59,	8.974338e-12,	9477.67,	5.205821e-10,	9477.82,	2.051569e-12,	9478.04,	5.904635e-13,	9477.97,	6.976502e-14,	9477.89,	3.19415e-12,	9477.74,	3.359086e-11
4756.89,	0.893347,	-0.00315177,	16,	9534.34,	8.940197e-12,	9534.42,	5.220668e-10,	9534.57,	2.031294e-12,	9534.79,	5.956556e-13,	9534.71,	6.708392e-14,	9534.64,	3.227692e-12,	9534.49,	3.344839e-11
4768.58,	0.659453,	-0.0065505,	16,	9591.09,	8.947778e-12,	9591.17,	5.211951e-10,	9591.32,	2.024231e-12,	9591.54,	5.899046e-13,	9591.46,	7.788927e-14,	9591.39,	3.222897e-12,	9591.24,	3.346277e-11
4780.27,	0.425551,	-0.000870473,	16,	9647.84,	8.956854e-12,	9647.92,	5.202865e-10,	9648.07,	2.01053e-12,	9648.29,	6.032412e-13,	9648.21,	8.131152e-14,	9648.14,	3.203493e-12,	9647.99,	3.342919e-11
4791.97,	0.191559,	-0.00394514,	16,	9704.59,	8.951517e-12,	9704.66,	5.217697e-10,	9704.81,	2.019302e-12,	9705.04,	5.766814e-13,	9704.96,	7.069245e-14,	9704.89,	3.233601e-12,	9704.74,	3.355495e-11
4803.29,	0.0553328,	0.0112875,	16,	9761.34,	8.943749e-12,	9761.41,	5.198325e-10,	9761.56,	2.025661e-12,	9761.79,	5.932134e-13,	9761.71,	7.682413e-14,	9761.64,	3.213456e-12,	9761.49,	3.340754e-11
4814.98,	0.289209,	0.00368314,	16,	9818.09,	8.977444e-12,	9818.16,	5.210783e-10,	9818.31,	2.042136e-12,	9818.54,	5.775967e-13,	9818.46,	8.16193e-14,	9818.39,	3.218786e-12,	9818.24,	3.330144e-11
4826.68,	0.5229792,	0.000370623,	16,	9874.84,	8.963658e-12,	9874.91,	5.211798e-10,	9875.06,	2.025742e-12,	9875.28,	5.937966e-13,	9875.21,	8.771048e-14,	9875.13,	3.205097e-12,	9874.99,	3.33026e-11
4838.37,	0.756897,	0.000983779,	16,	9931.59,	8.955942e-12,	9931.66,	5.208301e-10,	9931.81,	2.016293e-12,	9932.03,	5.828575e-13,	9931.96,	8.354304e-14,	9931.88,	3.227401e-12,	9931.73,	3.352812e-11
4849.62,	0.981803,	0.00443536,	17,	9988.34,	8.955035e-12,	9988.41,	5.194098e-10,	9988.56,	2.030679e-12,	9988.78,	5.767178e-13,	9988.71,	8.686404e-14,	9988.63,	3.222849e-12,	9988.48,	3.329472e-11
4861.31,	1.215705,	0.00478657,	17,	10045.1,	8.921003e-12,	10045.2,	5.194384e-10,	10045.3,	2.015115e-12,	10045.5,	5.831209e-13,	10045.5,	8.42599e-14,	10045.4,	3.217539e-12,	10045.2,	3.344446e-11
4873,	1.44956,	0.0056012,	17,	10101.8,	8.931971e-12,	10101.9,	5.214398e-10,	10102.1,	2.018128e-12,	10102.3,	5.771107e-13,	10102.2,	7.659732e-14,	10102.1,	3.221751e-12,	10102,	3.295069e-11
4884.7,	1.6835,	0.0843608,	17,	10158.6,	8.959659e-12,	10158.7,	5.20525e-10,	10158.8,	2.002742e-12,	10159,	5.725139e-13,	10159,	7.031579e-14,	10158.9,	3.237355e-12,	10158.7,	3.348027e-11
4895.6,	1.49909,	0.000173298,	17,	10215.3,	8.97789e-12,	10215.4,	5.210557e-10,	10215.5,	2.022137e-12,	10215.8,	5.717728e-13,	10215.7,	7.262023e-14,	10215.6,	3.224821e-12,	10215.5,	3.342422e-11
4907.29,	1.26517,	-0.000355148,	17,	10272.1,	8.971397e-12,	10272.2,	5.214157e-10,	10272.3,	2.000109e-12,	10272.5,	5.634339e-13,	10272.5,	7.711166e-14,	10272.4,	3.240636e-12,	10272.2,	3.353718e-11
4918.99,	1.03126,	-0.00118765,	17,	10328.8,	8.963399e-12,	10328.9,	5.219434e-10,	10329,	2.006561e-12,	10329.3,	5.713435e-13,	10329.2,	7.377852e-14,	10329.1,	3.227308e-12,	10329,	3.34205e-11
4930.68,	0.797375,	-0.0103887,	17,	10385.6,	8.981725e-12,	10385.7,	5.199092e-10,	10385.8,	2.016771e-12,	10386,	5.797878e-13,	10386,	8.747153e-14,	10385.9,	3.218418e-12,	10385.7,	3.34093e-11
4942.37,	0.563514,	-0.00146864,	17,	10442.3,	8.931805e-12,	10442.4,	5.208032e-10,	10442.5,	2.006201e-12,	10442.8,	5.663823e-13,	10442.7,	7.970366e-14,	10442.6,	3.203441e-12,	10442.5,	3.354952e-11
4954.07,	0.32958,	-0.00289024,	17,	10499.1,	8.959457e-12,	10499.2,	5.20568e-10,	10499.3,	2.015516e-12,	10499.5,	5.658801e-13,	10499.5,	7.835906e-14,	10499.4,	3.251085e-12,	10499.2,	3.343643e-11
4965.76,	0.0956357,	-0.00691652,	17,	10555.8,	8.968652e-12,	10555.9,	5.193475e-10,	10556,	2.008493e-12,	10556.3,	5.573832e-13,	10556.2,	8.667774e-14,	10556.1,	3.228041e-12,	10556,	3.314508e-11
4977.08,	0.151278,	0.00446318,	17,	10612.6,	8.968656e-12,	10612.7,	5.210057e-10,	10612.8,	2.038532e-12,	10613,	5.688568e-13,	10613,	7.116225e-14,	10612.9,	3.251373e-12,	10612.7,	3.36338e-11
4988.78,	0.38509,	0.000642584,	17,	10669.3,	8.985973e-12,	10669.4,	5.206816e-10,	10669.5,	2.0321e-12,	10669.8,	5.835502e-13,	10669.7,	6.068088e-14,	10669.6,	3.232646e-12,	10669.5,	3.352572e-11
5000.47,	0.618994,	0.000464189,	17,	10726.1,	8.965788e-12,	10726.2,	5.208121e-10,	10726.3,	2.029022e-12,	10726.5,	5.630896e-13,	10726.4,	6.597827e-14,	10726.4,	3.237149e-12,	10726.2,	3.322039e-11
5012.16,	0.852843,	0.00415861,	17,	10782.8,	8.982082e-12,	10782.9,	5.20412e-10,	10783,	2.000312e-12,	10783.3,	5.477443e-13,	10783.2,	6.378722e-14,	10783.1,	3.242523e-12,	10783,	3.317778e-11
5023.41,	1.07774,	0.00414626,	18,	10839.6,	8.953614e-12,	10839.7,	5.192875e-10,	10839.8,	2.003127e-12,	10840,	5.695615e-13,	10839.9,	7.928651e-14,	10839.9,	3.234662e-12,	10839.7,	3.333194e-11
5035.1,	1.311641,	0.0050509,	18,	10896.3,	8.955671e-12,	10896.4,	5.212916e-10,	10896.5,	1.985841e-12,	10896.8,	5.615264e-13,	10896.7,	7.692133e-14,	10896.6,	3.229818e-12,	10896.5,	3.328305e-11
5046.8,	1.54558,	0.00938702,	18,	10953.1,	8.957221e-12,	10953.1,	5.207559e-10,	10953.3,	2.014349e-12,	10953.5,	5.615709e-13,	10953.4,	7.884506e-14,	10953.4,	3.209743e-12,	10953.2,	3.302349e-11
5057.7,	1.63705,	0.011011,	18,	11009.8,	8.987253e-12,	11009.9,	5.209204e-10,	11010,	1.987988e-12,	11010.3,	5.30301e-13,	11010.2,	5.933628e-14,	11010.1,	3.250093e-12,	11010,	3.322984e-11
5069.39,	1.40312,	-0.000141721,	18,	11066.6,	8.971199e-12,	11066.6,	5.210996e-10,	11066.8,	1.976583e-12,	11067,	5.408795e-13,	11066.9,	7.626521e-14,	11066.9,	3.220447e-12,	11066.7,	3.344911e-11
5081.08,	1.16921,	-0.00056331,	18,	11123.3,	8.978286e-12,	11123.4,	5.192679e-10,	11123.5,	1.992872e-12,	11123.8,	5.573953e-13,	11123.7,	8.257509e-14,	11123.6,	3.221978e-12,	11123.5,	3.331088e-11
5092.78,	0.935341,	-0.00226955,	18,	11180.1,	8.974641e-12,	11180.1,	5.206389e-10,	11180.3,	2.009931e-12,	11180.5,	5.42054e-13,	11180.4,	7.672691e-14,	11180.4,	3.235991e-12,	11180.2,	3.321412e-11
5104.47,	0.701437,	-0.0190106,	18,	11236.8,	8.972138e-12,	11236.9,	5.19856e-10,	11237,	1.983727e-12,	11237.3,	5.404583e-13,	11237.2,	6.644805e-14,	11237.1,	3.217255e-12,	11237,	3.329455e-11
5116.17,	0.467546,	-0.00092215,	18,	11293.6,	8.962196e-12,	11293.6,	5.210392e-10,	11293.8,	1.984525e-12,	11294,	5.499069e-13,	11293.9,	6.718111e-14,	11293.9,	3.229734e-12,	11293.7,	3.332547e-11
5127.86,	0.233571,	-0.0034437,	18,	11350.3,	8.976549e-12,	11350.4,	5.201655e-10,	11350.5,	2.015742e-12,	11350.8,	5.505064e-13,	11350.7,	8.414245e-14,	11350.6,	3.237995e-12,	11350.5,	3.329869e-11
5139.18,	0.0132852,	0.0117463,	18,	11407.1,	8.982467e-12,	11407.1,	5.224601e-10,	11407.3,	2.0023e-12,	11407.5,	5.401101e-13,	11407.4,	7.763413e-14,	11407.4,	3.268731e-12,	11407.2,	3.350252e-11
5150.88,	0.247215,	0.00348399,	18,	11463.8,	8.988978e-12,	11463.9,	5.215541e-10,	11464,	2.017674e-12,	11464.3,	5.463957e-13,	11464.2,	7.896252e-14,	11464.1,	3.252417e-12,	11464,	3.326184e-11
5162.57,	0.481046,	0.000304434,	18,	11520.6,	9.0027e-12,	11520.6,	5.215635e-10,	11520.8,	1.998348e-12,	11521,	5.44403e-13,	11520.9,	7.635433e-14,	11520.9,	3.248691e-12,	11520.7,	3.339091e-11
5174.26,	0.714918,	0.000671486,	18,	11577.3,	8.999075e-12,	11577.4,	5.215434e-10,	11577.5,	1.999453e-12,	11577.75,	5.353837e-13,	11577.7,	7.822138e-14,	11577.6,	3.228381e-12,	11577.5,	3.32541e-11
5185.51,	0.93983,	0.00462186,	19,	11634.1,	8.975958e-12,	11634.1,	5.21408e-10,	11634.3,	1.978021e-12,	11634.5,	5.320951e-13,	11634.4,	7.600199e-14,	11634.3,	3.244856e-12,	11634.2,	3.339336e-11
5197.2,	1.17369,	0.00441792,	19,	11690.8,	8.979708e-12,	11690.9,	5.223965e-10,	11691,	1.971289e-12,	11691.25,	5.299648e-13,	11691.2,	8.511444e-14,	11691.1,	3.259185e-12,	11691,	3.334347e-11
5208.89,	1.40762,	0.00509916,	19,	11747.5,	9.002469e-12,	11747.6,	5.208198e-10,	11747.8,	1.982079e-12,	11748.0,	5.291709e-13,	11747.9,	8.762544e-14,	11747.8,	3.212464e-12,	11747.7,	3.328973e-11
5220.59,	1.641528,	0.0391474,	19,	11804.3,	9.023885e-12,	11804.4,	5.222968e-10,	11804.5,	1.975809e-12,	11804.75,	5.351812e-13,	11804.7,	6.784531e-14,	11804.6,	3.223059e-12,	11804.5,	3.32717e-11
5231.49,	1.54111,	0.000635722,	19,	11861,	8.991643e-12,	11861.1,	5.22329e-10,	11861.3,	1.989559e-12,	11861.5,	5.383361e-13,	11861.4,	7.109745e-14,	11861.3,	3.255001e-12,	11861.2,	3.336694e-11
5243.18,	1.30716,	-0.000297558,	19,	11917.8,	8.977619e-12,	11917.9,	5.209094e-10,	11918,	1.990989e-12,	11918.25,	5.315524e-13,	11918.2,	6.619291e-14,	11918.1,	3.229733e-12,	11918,	3.33594e-11
5254.88,	1.07326,	-0.000935677,	19,	11974.5,	9.017101e-12,	11974.6,	5.219879e-10,	11974.8,	2.007809e-12,	11975.0,	5.194875e-13,	11974.9,	7.998311e-14,	11974.8,	3.259999e-12,	11974.7,	3.309389e-11
5266.57,	0.839309,	-0.00559585,	19,	12031.3,	8.983422e-12,	12031.4,	5.200214e-10,	12031.5,	1.987947e-12,	12031.75,	5.368052e-13,	12031.7,	8.21053e-14,	12031.6,	3.223727e-12,	12031.5,	3.319477e-11
5278.27,	0.605487,	-0.00230172,	19,	12088,	9.005336e-12,	12088.1,	5.209914e-10,	12088.3,	2.028297e-12,	12088.5,	5.551881e-13,	12088.4,	7.401747e-14,	12088.3,	3.224533e-12,	12088.2,	3.339471e-11
5289.96,	0.371582,	-0.00121622,	19,	12144.8,	8.995762e-12,	12144.9,	5.216388e-10,	12145,	1.990778e-12,	12145.25,	5.317954e-13,	12145.2,	6.086312e-14,	12145.1,	3.226299e-12,	12145,	3.331112e-11
5301.65,	0.137603,	-0.00564674,	19,	12201.5,	9.000067e-12,	12201.6,	5.224319e-10,	12201.8,	1.98755e-12,	12202,	5.334923e-13,	12201.9,	6.460125e-14,	12201.8,	3.253235e-12,	12201.7,	3.315026e-11
5312.97,	0.109337,	0.00628729,	19,	12258.3,	8.994373e-12,	12258.4,	5.22157e-10,	12258.5,	2.013802e-12,	12258.7,	5.25449e-13,	12258.7,	6.770354e-14,	12258.6,	3.23834e-12,	12258.4,	3.335492e-11
5324.67,	0.34316,	0.00202457,	19,	12315,	9.000521e-12,	12315.1,	5.206678e-10,	12315.3,	1.995926e-12,	12315.5,	5.154942e-13,	12315.4,	6.610785e-14,	12315.3,	3.229049e-12,	12315.2,	3.343409e-11
5336.36,	0.576997,	0.000362402,	19,	12371.8,	9.00498e-12,	12371.9,	5.203562e-10,	12372,	1.970075e-12,	12372.2,	5.335936e-13,	12372.2,	7.228408e-14,	12372.1,	3.24616e-12,	12371.9,	3.300361e-11
5348.06,	0.81087,	0.00187831,	19,	12428.5,	8.998476e-12,	12428.6,	5.210264e-10,	12428.8,	2.001332e-12,	12429,	5.379271e-13,	12428.9,	7.490037e-14,	12428.8,	3.23998e-12,	12428.7,	3.327974e-11
5359.3,	1.0358,	0.00423713,	20,	12485.3,	9.031814e-12,	12485.4,	5.211001e-10,	12485.5,	1.982848e-12,	12485.7,	5.258581e-13,	12485.7,	8.278975e-14,	12485.6,	3.235395e-12,	12485.4,	3.34022e-11
5370.99,	1.26968,	0.00481321,	20,	12542,	9.030915e-12,	12542.1,	5.204405e-10,	12542.3,	1.991394e-12,	12542.5,	5.24554e-13,	12542.4,	7.539447e-14,	12542.3,	3.249595e-12,	12542.2,	3.310468e-11
5382.69,	1.50358,	0.00649895,	20,	12598.8,	9.035703e-12,	12598.9,	5.220399e-10,	12599,	1.978896e-12,	12599.2,	5.220349e-13,	12599.2,	5.719383e-14,	12599.1,	3.2306e-12,	12598.9,	3.32722e-11
5393.59,	1.679003,	0.0461632,	20,	12655.5,	9.016033e-12,	12655.6,	5.210129e-10,	12655.8,	2.01722e-12,	12656,	5.272796e-13,	12655.9,	7.005255e-14,	12655.8,	3.231827e-12,	12655.7,	3.334211e-11
5405.28,	1.44508,	-6.75131e-05,	20,	,	,	,	,	,	,	,	,	,	,	,	,	,
5416.98,	1.211202,	-0.000468027,	20,	,	,	,	,	,	,	,	,	,	,	,	,	,
5428.67,	0.977316,	-0.00168912,	20,	,	,	,	,	,	,	,	,	,	,	,	,	,
5440.36,	0.7433942,	-0.0271355,	20,	,	,	,	,	,	,	,	,	,	,	,	,	,
5452.06,	0.509482,	-0.00106339,	20,	,	,	,	,	,	,	,	,	,	,	,	,	,
5463.75,	0.275563,	-0.00376685,	20,	,	,	,	,	,	,	,	,	,	,	,	,	,
5475.45,	0.04165452,	-0.0128615,	20,	,	,	,	,	,	,	,	,	,	,	,	,	,
5486.77,	0.205206,	0.00355917,	20,	,	,	,	,	,	,	,	,	,	,	,	,	,
5498.46,	0.439048,	0.000305789,	20,	,	,	,	,	,	,	,	,	,	,	,	,	,
5510.16,	0.672929,	0.000563419,	20,	,	,	,	,	,	,	,	,	,	,	,	,	,
5521.85,	0.9068312,	0.00490206,	20,	,	,	,	,	,	,	,	,	,	,	,	,	,
5557.92,	0.882061,	2.53909e-06,	21,	,	,	,	,	,	,	,	,	,	,	,	,	,
5596.92,	0.889576,	2.37583e-06,	21,	,	,	,	,	,	,	,	,	,	,	,	,	,
5635.92,	0.89743,	2.29725e-06,	21,	,	,	,	,	,	,	,	,	,	,	,	,	,
5674.92,	0.904246,	2.27779e-06,	21,	,	,	,	,	,	,	,	,	,	,	,	,	,
5713.92,	0.910015,	2.29038e-06,	21,	,	,	,	,	,	,	,	,	,	,	,	,	,
5752.92,	0.914763,	2.37125e-06,	21,	,	,	,	,	,	,	,	,	,	,	,	,	,
5791.92,	0.918725,	2.17022e-06,	21,	,	,	,	,	,	,	,	,	,	,	,	,	,
5824.24,	0.85081,	-0.00249648,	22,	,	,	,	,	,	,	,	,	,	,	,	,	,
5838.9,	0.462421,	-0.00249629,	22,	,	,	,	,	,	,	,	,	,	,	,	,	,
5862.89,	0.0938987,	-0.00249572,	22,	,	,	,	,	,	,	,	,	,	,	,	,	,
5901.89,	0.0385221,	-0.0024969,	22,	,	,	,	,	,	,	,	,	,	,	,	,	,
5940.89,	0.0379108,	-0.00249656,	22,	,	,	,	,	,	,	,	,	,	,	,	,	,
5979.89,	0.0377427,	-0.00249629,	22,	,	,	,	,	,	,	,	,	,	,	,	,	,
6018.89,	0.0376816,	-0.00249598,	22,	,	,	,	,	,	,	,	,	,	,	,	,	,
6057.89,	0.03763577,	-0.00249682,	22,	,	,	,	,	,	,	,	,	,	,	,	,	,
6096.89,	0.0375517,	-0.00249572,	22,	,	,	,	,	,	,	,	,	,	,	,	,	,
6134.23,	0.0631636,	2.354466e-06,	23,	,	,	,	,	,	,	,	,	,	,	,	,	,
6173.23,	0.0970161,	2.4998e-06,	23,	,	,	,	,	,	,	,	,	,	,	,	,	,
6212.23,	0.1168898,	2.58563e-06,	23,	,	,	,	,	,	,	,	,	,	,	,	,	,
6251.23,	0.134261,	2.50476e-06,	23,	,	,	,	,	,	,	,	,	,	,	,	,	,
6290.23,	0.153126,	2.63064e-06,	23,	,	,	,	,	,	,	,	,	,	,	,	,	,
6329.23,	0.176652,	2.51735e-06,	23,	,	,	,	,	,	,	,	,	,	,	,	,	,
6368.23,	0.20014,	2.49255e-06,	23,	,	,	,	,	,	,	,	,	,	,	,	,	,
6407.23,	0.225515,	2.60203e-06,	23,	,	,	,	,	,	,	,	,	,	,	,	,	,
6435.31,	0.0348927,	-0.00499661,	24,	,	,	,	,	,	,	,	,	,	,	,	,	,
6474.31,	0.0284401,	-0.00499669,	24,	,	,	,	,	,	,	,	,	,	,	,	,	,
6513.31,	0.028272,	-0.00499638,	24,	,	,	,	,	,	,	,	,	,	,	,	,	,
6552.31,	0.028272,	-0.00499627,	24,	,	,	,	,	,	,	,	,	,	,	,	,	,
6591.31,	0.02823,	-0.00499638,	24,	,	,	,	,	,	,	,	,	,	,	,	,	,
6630.31,	0.0281994,	-0.00499699,	24,	,	,	,	,	,	,	,	,	,	,	,	,	,
6669.31,	0.0281612,	-0.00499695,	24,	,	,	,	,	,	,	,	,	,	,	,	,	,
6708.31,	0.0282338,	-0.00499634,	24,	,	,	,	,	,	,	,	,	,	,	,	,	,
6746.23,	0.0723058,	2.46928e-06,	25,	,	,	,	,	,	,	,	,	,	,	,	,	,
6785.23,	0.09943825,	2.40024e-06,	25,	,	,	,	,	,	,	,	,	,	,	,	,	,
6824.23,	0.117776,	2.54443e-06,	25,	,	,	,	,	,	,	,	,	,	,	,	,	,
6863.23,	0.134135,	2.3373e-06,	25,	,	,	,	,	,	,	,	,	,	,	,	,	,
6902.23,	0.1515484,	2.440675e-06,	25,	,	,	,	,	,	,	,	,	,	,	,	,	,
6941.23,	0.171151,	2.67145e-06,	25,	,	,	,	,	,	,	,	,	,	,	,	,	,
6980.23,	0.192518,	2.398715e-06,	25,	,	,	,	,	,	,	,	,	,	,	,	,	,
7019.23,	0.215911,	2.61271e-06,	25,	,	,	,	,	,	,	,	,	,	,	,	,	,
7043.69,	0.0200047,	-0.00999645,	26,	,	,	,	,	,	,	,	,	,	,	,	,	,
7082.69,	0.0194087,	-0.0099966,	26,	,	,	,	,	,	,	,	,	,	,	,	,	,
7121.69,	0.0194431,	-0.00999672,	26,	,	,	,	,	,	,	,	,	,	,	,	,	,
7160.69,	0.0193476,	-0.00999653,	26,	,	,	,	,	,	,	,	,	,	,	,	,	,
7199.69,	0.01934373,	-0.00999668,	26,	,	,	,	,	,	,	,	,	,	,	,	,	,
7238.69,	0.0193017,	-0.00999664,	26,	,	,	,	,	,	,	,	,	,	,	,	,	,
7277.69,	0.0193132,	-0.00999618,	26,	,	,	,	,	,	,	,	,	,	,	,	,	,
7316.69,	0.0192482,	-0.00999626,	26,	,	,	,	,	,	,	,	,	,	,	,	,	,
7354.23,	0.0751138,	2.48302e-06,	27,	,	,	,	,	,	,	,	,	,	,	,	,	,
7393.23,	0.099316,	2.56312e-06,	27,	,	,	,	,	,	,	,	,	,	,	,	,	,
7432.23,	0.1171,	2.3579e-06,	27,	,	,	,	,	,	,	,	,	,	,	,	,	,
7471.23,	0.133218,	2.3415e-06,	27,	,	,	,	,	,	,	,	,	,	,	,	,	,
7510.23,	0.150089,	2.59822e-06,	27,	,	,	,	,	,	,	,	,	,	,	,	,	,
7549.23,	0.169092,	2.37011e-06,	27,	,	,	,	,	,	,	,	,	,	,	,	,	,
7588.23,	0.190195,	2.41779e-06,	27,	,	,	,	,	,	,	,	,	,	,	,	,	,
7622.65,	0.16955,	-0.0149958,	28,	,	,	,	,	,	,	,	,	,	,	,	,	,
7650.74,	0.0146217,	-0.014996,	28,	,	,	,	,	,	,	,	,	,	,	,	,	,
7689.74,	0.0143925,	-0.0149966,	28,	,	,	,	,	,	,	,	,	,	,	,	,	,
7728.74,	0.0143581,	-0.0149958,	28,	,	,	,	,	,	,	,	,	,	,	,	,	,
7767.74,	0.014381,	-0.0149966,	28,	,	,	,	,	,	,	,	,	,	,	,	,	,
7806.74,	0.0143772,	-0.01499625,	28,	,	,	,	,	,	,	,	,	,	,	,	,	,
7845.74,	0.0143734,	-0.0149963,	28,	,	,	,	,	,	,	,	,	,	,	,	,	,
7884.74,	0.0143467,	-0.0149963,	28,	,	,	,	,	,	,	,	,	,	,	,	,	,
7922.23,	0.01385582,	-0.000281336,	29,	,	,	,	,	,	,	,	,	,	,	,	,	,
7961.23,	0.0770431,	2.51964e-06,	29,	,	,	,	,	,	,	,	,	,	,	,	,	,
8000.23,	0.0994115,	2.40863e-06,	29,	,	,	,	,	,	,	,	,	,	,	,	,	,
8039.23,	0.116638,	2.366291e-06,	29,	,	,	,	,	,	,	,	,	,	,	,	,	,
8078.23,	0.134078,	2.47768e-06,	29,	,	,	,	,	,	,	,	,	,	,	,	,	,
8117.23,	0.150716,	2.327e-06,	29,	,	,	,	,	,	,	,	,	,	,	,	,	,
8156.23,	0.169443,	2.438386e-06,	29,	,	,	,	,	,	,	,	,	,	,	,	,	,
8195.23,	0.189825,	2.48492e-06,	29,	,	,	,	,	,	,	,	,	,	,	,	,	,
8223.3,	0.0957325,	-0.0199958,	30,	,	,	,	,	,	,	,	,	,	,	,	,	,
8257.07,	0.0110993,	-0.0199965,	30,	,	,	,	,	,	,	,	,	,	,	,	,	,
8296.07,	0.0110191,	-0.0199959,	30,	,	,	,	,	,	,	,	,	,	,	,	,	,
8335.07,	0.0109503,	-0.0199964,	30,	,	,	,	,	,	,	,	,	,	,	,	,	,
8374.07,	0.0110229,	-0.0199968,	30,	,	,	,	,	,	,	,	,	,	,	,	,	,
8413.07,	0.0109389,	-0.0199961,	30,	,	,	,	,	,	,	,	,	,	,	,	,	,
8452.07,	0.0110229,	-0.0199964,	30,	,	,	,	,	,	,	,	,	,	,	,	,	,
8491.07,	0.01096179,	-0.0199964,	30,	,	,	,	,	,	,	,	,	,	,	,	,	,
8528.23,	0.0275652,	2.6047e-06,	31,	,	,	,	,	,	,	,	,	,	,	,	,	,
8567.23,	0.0744873,	2.49141e-06,	31,	,	,	,	,	,	,	,	,	,	,	,	,	,
8606.23,	0.095488,	2.5532e-06,	31,	,	,	,	,	,	,	,	,	,	,	,	,	,
8645.23,	0.112401,	2.305258e-06,	31,	,	,	,	,	,	,	,	,	,	,	,	,	,
8684.23,	0.1280186,	2.59669e-06,	31,	,	,	,	,	,	,	,	,	,	,	,	,	,
8723.23,	0.143701,	2.7035e-06,	31,	,	,	,	,	,	,	,	,	,	,	,	,	,
8762.23,	0.160973,	2.28199e-06,	31,	,	,	,	,	,	,	,	,	,	,	,	,	,
8801.23,	0.180022,	2.35561e-06,	31,	,	,	,	,	,	,	,	,	,	,	,	,	,
8822.23,	0.1906845,	2.50476e-06,	31,	,	,	,	,	,	,	,	,	,	,	,	,	,