File: Quantification/development/chip crosscheck/HERonPt_RnD1_2019W4C5_noSEM_1-2.csv
ixdat version = 0.2.3
name = 2022-07-06 09_33_53 HER_chip crosscheck_SEM_off AND 2022-07-06 09_33_53 HER_chip crosscheck_SEM_off_01_01_CVA_DUSB0_C01.mpt AND 2022-07-06 09_33_53 HER_chip crosscheck_SEM_off_01_02_CP_DUSB0_C01.mpt
technique = EC-MS
tstamp = 1657092833.0
backend_name = BackendBase(none, address=none)
id = 95
timecol 'time/s' for: 'Ewe/V' and 'raw_current' and 'selector'
timecol 'C0M2 time [s]' for: 'M2'
timecol 'C3M28 time [s]' for: 'M28'
timecol 'C6M44 time [s]' for: 'M44'
timecol 'C1M4 time [s]' for: 'M4'
timecol 'C5M40 time [s]' for: 'M40'
timecol 'C4M32 time [s]' for: 'M32'
timecol 'C2M18 time [s]' for: 'M18'
aliases = {"M2": ["M2 [A]"], "M4": ["M4 [A]"], "M18": ["M18 [A]"], "M28": ["M28 [A]"], "M32": ["M32 [A]"], "M40": ["M40 [A]"], "M44": ["M44 [A]"], "t": ["time/s"], "raw_potential": ["Ewe/V"], "raw_current": ["<I>/mA", "I/mA"], "cycle": ["cycle number"]}
N_header_lines = 18

time/s,	Ewe/V,	raw_current,	selector,	C0M2 time [s],	M2,	C3M28 time [s],	M28,	C6M44 time [s],	M44,	C1M4 time [s],	M4,	C5M40 time [s],	M40,	C4M32 time [s],	M32,	C2M18 time [s],	M18
790.0,	0.921445,	-9.39864e-05,	0,	0.498452,	2.258405e-12,	0.722472,	1.552359e-14,	0.945492,	1.43896e-14,	0.573459,	6.054729e-16,	0.871485,	5.050332e-16,	0.796479,	1.273032e-13,	0.647465,	6.922924e-13
807.668,	1.07447,	0.000433093,	0,	52.8822,	2.251917e-12,	53.1062,	4.906556e-14,	53.3292,	2.771404e-14,	52.9572,	1.779968e-14,	53.2552,	8.598113e-15,	53.1802,	1.366749e-13,	53.0312,	7.219463e-13
818.463,	1.29038,	0.00138323,	0,	105.266,	2.367484e-12,	105.49,	6.723783e-14,	105.713,	2.165121e-14,	105.341,	6.747261e-15,	105.639,	1.494443e-14,	105.564,	1.449976e-13,	105.415,	7.349994e-13
829.257,	1.50631,	0.00240991,	0,	157.65,	2.450083e-12,	157.873,	7.512316e-14,	158.096,	3.008733e-14,	157.724,	1.11982e-14,	158.022,	3.292632e-15,	157.948,	1.477961e-13,	157.799,	7.460275e-13
839.709,	1.68533,	0.0187045,	0,	210.033,	2.192581e-12,	210.256,	2.421889e-14,	210.48,	2.35709e-14,	210.107,	6.59336e-15,	210.405,	1.129134e-14,	210.331,	1.50708e-13,	210.182,	7.506242e-13
850.503,	1.46937,	-0.000118143,	0,	262.418,	2.327377e-12,	262.642,	6.18959e-14,	262.865,	5.746903e-15,	262.493,	1.365247e-14,	262.791,	9.181288e-15,	262.716,	1.564387e-13,	262.567,	7.505554e-13
861.297,	1.25354,	-0.000267906,	0,	314.801,	2.489117e-12,	315.025,	6.312708e-14,	315.248,	1.109287e-14,	314.876,	2.928105e-15,	315.174,	1.021808e-14,	315.099,	1.550131e-13,	314.95,	7.489353e-13
872.092,	1.03757,	-0.000780007,	0,	367.184,	5.764599e-12,	367.408,	9.206632e-10,	367.631,	1.256399e-12,	367.259,	1.086607e-14,	367.557,	1.52804e-11,	367.482,	1.854714e-10,	367.333,	3.911439e-11
882.886,	0.821635,	-0.00294651,	0,	419.568,	5.487596e-12,	419.791,	9.316948e-10,	420.015,	1.255637e-12,	419.642,	6.959086e-14,	419.94,	1.557933e-11,	419.866,	1.953051e-10,	419.717,	3.389334e-11
893.68,	0.605798,	-0.0143493,	0,	471.952,	5.305088e-12,	472.175,	9.462486e-10,	472.399,	1.124839e-12,	472.026,	3.479339e-14,	472.324,	1.574015e-11,	472.25,	1.995792e-10,	472.101,	3.050949e-11
904.475,	0.389905,	-0.00137844,	0,	524.335,	5.124373e-12,	524.559,	9.42868e-10,	524.782,	1.254661e-12,	524.41,	7.248659e-14,	524.708,	1.569807e-11,	524.633,	2.021493e-10,	524.484,	2.835822e-11
915.269,	0.173895,	-0.00537654,	0,	576.719,	5.048427e-12,	576.943,	9.2382e-10,	577.166,	1.2828e-12,	576.794,	8.533408e-12,	577.092,	1.537809e-11,	577.017,	1.981682e-10,	576.868,	2.658419e-11
925.421,	0.049639,	0.0134039,	0,	629.102,	6.122411e-12,	629.326,	5.011692e-11,	629.549,	7.939574e-12,	629.177,	5.309529e-10,	629.475,	1.682963e-12,	629.4,	2.296008e-11,	629.251,	3.970698e-11
936.215,	0.265519,	0.00323064,	0,	681.487,	6.389969e-12,	681.71,	7.486105e-12,	681.934,	3.499722e-12,	681.561,	5.755449e-10,	681.859,	2.263617e-13,	681.785,	6.16283e-12,	681.636,	4.235662e-11
947.01,	0.481319,	7.33679e-06,	0,	733.87,	6.464784e-12,	734.093,	5.544612e-12,	734.317,	2.212365e-12,	733.944,	5.735846e-10,	734.242,	1.632994e-13,	734.168,	5.40445e-12,	734.019,	4.219916e-11
957.804,	0.697242,	0.00072157,	0,	786.253,	6.562608e-12,	786.477,	4.914166e-12,	786.7,	1.747548e-12,	786.328,	5.72104e-10,	786.626,	1.644577e-13,	786.551,	5.096432e-12,	786.402,	4.156266e-11
968.598,	0.913132,	0.00403301,	0,	838.637,	6.698234e-12,	838.861,	4.567909e-12,	839.084,	1.593568e-12,	838.712,	5.68782e-10,	839.01,	1.445966e-13,	838.935,	6.422057e-12,	838.786,	4.081725e-11
979.078,	1.12269,	0.00592324,	1,	891.02,	6.861667e-12,	891.244,	4.413305e-12,	891.467,	1.504055e-12,	891.095,	5.693388e-10,	891.393,	1.397609e-13,	891.318,	4.72436e-12,	891.169,	4.059074e-11
989.872,	1.33862,	0.00786206,	1,	943.405,	7.016202e-12,	943.628,	4.215702e-12,	943.852,	1.426461e-12,	943.479,	5.67329e-10,	943.777,	1.371081e-13,	943.703,	4.519743e-12,	943.554,	4.007479e-11
1000.67,	1.55463,	0.0113156,	1,	995.788,	7.063866e-12,	996.011,	4.148962e-12,	996.235,	1.592353e-12,	995.862,	5.644332e-10,	996.16,	1.265174e-13,	996.086,	4.545051e-12,	995.937,	3.955344e-11
1011.1,	1.63739,	0.0095354,	1,	1048.17,	7.044431e-12,	1048.39,	4.067287e-12,	1048.62,	1.48973e-12,	1048.25,	5.627307e-10,	1048.54,	1.341031e-13,	1048.47,	4.78104e-12,	1048.32,	3.906246e-11
1021.9,	1.421474,	5.71282e-05,	1,	1100.56,	7.10904e-12,	1100.78,	3.920147e-12,	1101,	1.343692e-12,	1100.63,	5.630952e-10,	1100.93,	1.257317e-13,	1100.85,	4.304393e-12,	1100.7,	3.873264e-11
1032.69,	1.20546,	-0.000492427,	1,	1152.94,	7.255038e-12,	1153.16,	3.847575e-12,	1153.39,	1.352752e-12,	1153.02,	5.605316e-10,	1153.31,	1.407369e-13,	1153.24,	4.279076e-12,	1153.09,	3.848253e-11
1043.49,	0.9896,	-0.0015309,	1,	1205.32,	7.117682e-12,	1205.55,	3.794249e-12,	1205.77,	1.327451e-12,	1205.4,	5.580859e-10,	1205.7,	1.283318e-13,	1205.62,	5.072164e-12,	1205.47,	3.823404e-11
1054.28,	0.7736814,	-0.0144464,	1,	1257.71,	1.098807e-11,	1257.93,	3.748188e-12,	1258.15,	1.240551e-12,	1257.78,	5.583012e-10,	1258.08,	1.114798e-13,	1258.01,	4.142965e-12,	1257.86,	3.796502e-11
1065.07,	0.557817,	-0.00193498,	1,	1310.09,	7.351631e-12,	1310.31,	3.719506e-12,	1310.54,	1.215951e-12,	1310.16,	5.56425e-10,	1310.46,	1.352532e-13,	1310.39,	4.120568e-12,	1310.24,	3.750028e-11
1075.87,	0.341923,	-0.00183661,	1,	1362.47,	7.162277e-12,	1362.7,	3.738614e-12,	1362.92,	1.268415e-12,	1362.55,	5.532177e-10,	1362.85,	1.248286e-13,	1362.77,	6.115777e-12,	1362.62,	3.755435e-11
1086.66,	0.1259117,	-0.00721747,	1,	1414.86,	7.397602e-12,	1415.08,	3.70421e-12,	1415.3,	1.179692e-12,	1414.93,	5.553161e-10,	1415.23,	1.304054e-13,	1415.15,	4.109872e-12,	1415.01,	3.681085e-11
1096.82,	0.0976543,	0.00666583,	1,	1467.24,	7.442022e-12,	1467.46,	3.707255e-12,	1467.69,	1.142464e-12,	1467.32,	5.539824e-10,	1467.61,	1.291904e-13,	1467.54,	4.07569e-12,	1467.39,	3.698128e-11
1107.89,	0.3192046,	0.00302032,	1,	1519.63,	7.137046e-12,	1519.85,	3.726569e-12,	1520.07,	1.191327e-12,	1519.7,	5.446235e-10,	1520,	1.257439e-13,	1519.92,	8.749846e-12,	1519.78,	3.684649e-11
1118.69,	0.534966,	7.25409e-05,	1,	1572.01,	7.423671e-12,	1572.23,	3.722665e-12,	1572.46,	1.125394e-12,	1572.08,	5.52295e-10,	1572.38,	1.342974e-13,	1572.31,	4.097548e-12,	1572.16,	3.647114e-11
1129.48,	0.7509172,	0.000882889,	1,	1624.39,	7.502395e-12,	1624.62,	3.706376e-12,	1624.84,	1.081824e-12,	1624.47,	5.501872e-10,	1624.77,	1.326207e-13,	1624.69,	4.008683e-12,	1624.54,	3.643293e-11
1139.98,	0.960795,	0.00460162,	2,	1676.78,	7.507494e-12,	1677.0,	3.701091e-12,	1677.22,	1.105051e-12,	1676.85,	5.501914e-10,	1677.15,	1.104714e-13,	1677.07,	4.029642e-12,	1676.92,	3.642574e-11
1150.77,	1.17665,	0.00543576,	2,	1729.16,	7.533361e-12,	1729.38,	3.742672e-12,	1729.61,	1.095391e-12,	1729.23,	5.502744e-10,	1729.53,	1.302151e-13,	1729.46,	4.02792e-12,	1729.31,	3.614492e-11
1161.57,	1.39262,	0.00676477,	2,	1781.54,	7.575522e-12,	1781.77,	3.744948e-12,	1781.99,	1.083995e-12,	1781.62,	5.489689e-10,	1781.92,	1.367841e-13,	1781.84,	4.022534e-12,	1781.69,	3.598176e-11
1172.36,	1.60855,	0.0206555,	2,	1833.93,	7.564603e-12,	1834.15,	3.736589e-12,	1834.375,	1.091333e-12,	1834,	5.47783e-10,	1834.3,	1.423245e-13,	1834.23,	3.992062e-12,	1834.08,	3.570914e-11
1182.8,	1.58347,	0.00226313,	2,	1886.31,	7.567056e-12,	1886.53,	3.744827e-12,	1886.76,	1.091811e-12,	1886.38,	5.474554e-10,	1886.68,	1.36776e-13,	1886.61,	4.023709e-12,	1886.46,	3.566705e-11
1193.59,	1.36738,	-0.000238589,	2,	1938.69,	7.605239e-12,	1938.92,	3.760719e-12,	1939.14,	1.091357e-12,	1938.77,	5.451622e-10,	1939.07,	1.355124e-13,	1938.99,	4.011251e-12,	1938.84,	3.554379e-11
1204.39,	1.15147,	-0.000635181,	2,	1991.08,	7.656525e-12,	1991.3,	3.742361e-12,	1991.53,	1.110939e-12,	1991.15,	5.461941e-10,	1991.45,	1.299842e-13,	1991.38,	3.962275e-12,	1991.23,	3.510364e-11
1215.18,	0.935657,	-0.00226924,	2,	2043.46,	1.065839e-11,	2043.68,	3.758527e-12,	2043.91,	1.098968e-12,	2043.54,	5.455795e-10,	2043.83,	1.338722e-13,	2043.76,	3.939433e-12,	2043.61,	3.541357e-11
1225.97,	0.7196992,	-0.0270918,	2,	2095.85,	1.093393e-11,	2096.07,	3.791815e-12,	2096.29,	1.119359e-12,	2095.92,	5.461963e-10,	2096.22,	1.284088e-13,	2096.14,	3.949764e-12,	2095.99,	3.539394e-11
1236.77,	0.503831,	-0.00143454,	2,	2148.23,	1.103454e-11,	2148.45,	3.781876e-12,	2148.68,	1.10111e-12,	2148.3,	5.45944e-10,	2148.6,	1.478568e-13,	2148.53,	3.962846e-12,	2148.38,	3.524606e-11
1247.56,	0.287863,	-0.00426452,	2,	2200.61,	1.10596e-11,	2200.84,	3.763064e-12,	2201.06,	1.11264e-12,	2200.69,	5.448601e-10,	2200.99,	1.40579e-13,	2200.91,	3.960266e-12,	2200.76,	3.47429e-11
1258.36,	0.07192757,	-0.00502779,	2,	2253,	8.444907e-12,	2253.22,	3.793451e-12,	2253.44,	1.111421e-12,	2253.07,	5.42936e-10,	2253.37,	1.359903e-13,	2253.29,	3.956779e-12,	2253.14,	3.511339e-11
1270.82,	0.197739,	0.00338913,	2,	2305.38,	7.732684e-12,	2305.6,	3.79516e-12,	2305.83,	1.121554e-12,	2305.45,	5.430371e-10,	2305.75,	1.389306e-13,	2305.68,	3.934204e-12,	2305.53,	3.497651e-11
1281.61,	0.413553,	0.00010692,	2,	2357.76,	7.773108e-12,	2357.99,	3.801222e-12,	2358.21,	1.125981e-12,	2357.84,	5.442067e-10,	2358.14,	1.279835e-13,	2358.06,	3.921783e-12,	2357.91,	3.491992e-11
1292.41,	0.629453,	0.000316656,	2,	2410.15,	7.756738e-12,	2410.37,	3.783945e-12,	2410.59,	1.12573e-12,	2410.22,	5.427181e-10,	2410.52,	1.379384e-13,	2410.44,	3.939125e-12,	2410.3,	3.465508e-11
1303.2,	0.845343,	0.00307619,	2,	2462.53,	7.778583e-12,	2462.75,	3.807022e-12,	2462.97,	1.134907e-12,	2462.6,	5.423391e-10,	2462.9,	1.374767e-13,	2462.83,	3.91621e-12,	2462.68,	3.484587e-11
1313.47,	1.05077,	0.00463993,	3,	2514.91,	7.79471e-12,	2515.14,	3.773886e-12,	2515.36,	1.163589e-12,	2514.99,	5.42799e-10,	2515.29,	1.407896e-13,	2515.21,	3.926084e-12,	2515.06,	3.479732e-11
1324.26,	1.26662,	0.00564268,	3,	2567.3,	1.157454e-11,	2567.52,	3.795601e-12,	2567.75,	1.13562e-12,	2567.37,	5.43276e-10,	2567.67,	1.21374e-13,	2567.6,	3.908564e-12,	2567.45,	3.467754e-11
1335.06,	1.4825,	0.00677573,	3,	2619.68,	1.529914e-11,	2619.91,	3.707056e-12,	2620.13,	1.133858e-12,	2619.76,	5.413757e-10,	2620.06,	1.535997e-13,	2619.98,	3.892951e-12,	2619.83,	3.457974e-11
1345.82,	1.69788,	0.10359,	3,	2672.07,	1.552242e-11,	2672.29,	3.679245e-12,	2672.51,	1.130476e-12,	2672.14,	5.41522e-10,	2672.44,	1.405628e-13,	2672.36,	3.866371e-12,	2672.21,	3.451324e-11
1356.29,	1.49334,	0.000121114,	3,	2724.45,	1.559643e-11,	2724.67,	3.701168e-12,	2724.9,	1.145449e-12,	2724.52,	5.433137e-10,	2724.82,	1.52733e-13,	2724.75,	3.852686e-12,	2724.6,	3.464545e-11
1367.08,	1.2774,	-0.000387489,	3,	2776.83,	1.566702e-11,	2777.06,	3.652074e-12,	2777.28,	1.142314e-12,	2776.91,	5.417269e-10,	2777.21,	1.27696e-13,	2777.13,	3.857522e-12,	2776.98,	3.438428e-11
1377.88,	1.06156,	-0.00100467,	3,	2829.22,	1.566294e-11,	2829.44,	3.68398e-12,	2829.66,	1.138532e-12,	2829.29,	5.410745e-10,	2829.59,	1.34913e-13,	2829.52,	3.839159e-12,	2829.37,	3.451745e-11
1388.67,	0.845613,	-0.005196,	3,	2881.6,	7.998709e-12,	2881.82,	3.675576e-12,	2882.05,	1.140334e-12,	2881.67,	5.407592e-10,	2881.97,	1.457549e-13,	2881.9,	3.81658e-12,	2881.75,	3.443598e-11
1399.47,	0.629783,	-0.00432726,	3,	2933.98,	7.941502e-12,	2934.21,	3.679557e-12,	2934.43,	1.169895e-12,	2934.06,	5.424988e-10,	2934.36,	1.364845e-13,	2934.28,	3.824644e-12,	2934.13,	3.432996e-11
1410.26,	0.413847,	-0.00127169,	3,	2986.37,	7.906369e-12,	2986.59,	3.608978e-12,	2986.81,	1.146279e-12,	2986.44,	5.40256e-10,	2986.74,	1.425797e-13,	2986.66,	3.786351e-12,	2986.52,	3.426228e-11
1421.06,	0.197831,	-0.00424085,	3,	3038.75,	7.906109e-12,	3038.97,	3.592049e-12,	3039.2,	1.156971e-12,	3038.83,	5.405028e-10,	3039.12,	1.430171e-13,	3039.05,	3.786546e-12,	3038.9,	3.446109e-11
1432.11,	0.0436497,	0.0152333,	3,	3091.13,	7.917097e-12,	3091.36,	3.544587e-12,	3091.58,	1.162435e-12,	3091.21,	5.412417e-10,	3091.51,	1.348564e-13,	3091.43,	3.768584e-12,	3091.28,	3.422722e-11
1445.74,	0.316184,	0.00363955,	3,	3143.52,	7.910986e-12,	3143.74,	3.515877e-12,	3143.97,	1.176168e-12,	3143.59,	5.408875e-10,	3143.89,	1.268982e-13,	3143.82,	3.754194e-12,	3143.67,	3.419948e-11
1456.53,	0.531968,	0.00010829,	3,	3195.9,	2.393989e-11,	3196.13,	3.502253e-12,	3196.35,	1.172539e-12,	3195.98,	5.410645e-10,	3196.28,	1.402793e-13,	3196.2,	3.731563e-12,	3196.05,	3.408261e-11
1467.32,	0.747812,	0.000709138,	3,	3248.29,	2.432179e-11,	3248.51,	3.486203e-12,	3248.73,	1.17972e-12,	3248.36,	5.409951e-10,	3248.66,	1.309846e-13,	3248.58,	3.743134e-12,	3248.43,	3.438207e-11
1477.67,	0.954796,	0.00460262,	4,	3300.67,	2.44313e-11,	3300.89,	3.496393e-12,	3301.12,	1.176513e-12,	3300.74,	5.399431e-10,	3301.04,	1.226416e-13,	3300.97,	3.739521e-12,	3300.82,	3.422467e-11
1488.46,	1.17068,	0.00488079,	4,	3353.05,	2.444184e-11,	3353.28,	3.405932e-12,	3353.5,	1.138929e-12,	3353.13,	5.389548e-10,	3353.43,	1.333984e-13,	3353.35,	3.701727e-12,	3353.2,	3.422074e-11
1499.26,	1.38662,	0.00580492,	4,	3405.44,	2.449184e-11,	3405.66,	3.364638e-12,	3405.88,	1.150528e-12,	3405.51,	5.383526e-10,	3405.81,	1.298668e-13,	3405.73,	3.666751e-12,	3405.59,	3.432684e-11
1510.05,	1.60256,	0.0196363,	4,	3457.82,	1.017842e-11,	3458.05,	3.322316e-12,	3458.27,	1.125572e-12,	3457.9,	5.398323e-10,	3458.19,	1.235731e-13,	3458.12,	3.668023e-12,	3457.97,	3.410856e-11
1520.49,	1.58931,	0.00256821,	4,	3510.2,	8.134095e-12,	3510.43,	3.260748e-12,	3510.65,	1.130764e-12,	3510.28,	5.401088e-10,	3510.58,	1.229494e-13,	3510.5,	3.627709e-12,	3510.35,	3.402637e-11
1531.28,	1.37334,	-0.000269768,	4,	3562.59,	8.087132e-12,	3562.81,	3.240757e-12,	3563.04,	1.137552e-12,	3562.66,	5.403844e-10,	3562.96,	1.202116e-13,	3562.89,	3.616175e-12,	3562.74,	3.408411e-11
1542.08,	1.15746,	-0.000621118,	4,	3614.97,	8.084398e-12,	3615.19,	3.217952e-12,	3615.42,	1.118991e-12,	3615.05,	5.382195e-10,	3615.34,	1.131687e-13,	3615.27,	3.612664e-12,	3615.12,	3.391821e-11
1552.87,	0.941603,	-0.00222767,	4,	3667.35,	8.063375e-12,	3667.58,	3.217276e-12,	3667.8,	1.140217e-12,	3667.43,	5.393467e-10,	3667.73,	1.208029e-13,	3667.65,	3.613656e-12,	3667.5,	3.383669e-11
1563.67,	0.725685,	-0.0289012,	4,	3719.74,	8.067541e-12,	3719.96,	3.185917e-12,	3720.18,	1.149568e-12,	3719.81,	5.396301e-10,	3720.11,	1.257156e-13,	3720.04,	3.613968e-12,	3719.89,	3.400055e-11
1574.46,	0.509756,	-0.00156853,	4,	3772.12,	3.160085e-11,	3772.35,	3.185653e-12,	3772.57,	1.156562e-12,	3772.2,	5.373677e-10,	3772.49,	1.350265e-13,	3772.42,	3.584091e-12,	3772.27,	3.420423e-11
1585.25,	0.293838,	-0.00441144,	4,	3824.51,	3.325066e-11,	3824.73,	3.178999e-12,	3824.95,	1.157879e-12,	3824.58,	5.386113e-10,	3824.88,	1.034568e-13,	3824.8,	3.589409e-12,	3824.65,	3.424949e-11
1597.29,	0.0529345,	-0.00775654,	4,	3876.89,	3.348744e-11,	3877.11,	3.178145e-12,	3877.34,	1.1492e-12,	3876.96,	5.38769e-10,	3877.26,	1.220584e-13,	3877.19,	3.580762e-12,	3877.04,	3.431678e-11
1610.56,	0.2327933,	0.00351045,	4,	3929.27,	3.347412e-11,	3929.5,	3.675564e-12,	3929.72,	1.177371e-12,	3929.35,	5.377385e-10,	3929.65,	1.149628e-13,	3929.57,	3.642468e-12,	3929.42,	3.424023e-11
1621.36,	0.448623,	5.74934e-05,	4,	3981.66,	3.357688e-11,	3981.88,	3.103783e-12,	3982.1,	1.169462e-12,	3981.73,	5.385048e-10,	3982.03,	1.153152e-13,	3981.95,	3.546689e-12,	3981.81,	3.402125e-11
1632.15,	0.66454,	0.000497333,	4,	4034.04,	3.367571e-11,	4034.26,	3.083229e-12,	4034.49,	1.15312e-12,	4034.12,	5.384497e-10,	4034.41,	1.098437e-13,	4034.34,	3.505157e-12,	4034.19,	3.409601e-11
1642.95,	0.880433,	0.00453057,	4,	4086.43,	8.538284e-12,	4086.65,	3.091929e-12,	4086.87,	1.148568e-12,	4086.5,	5.370799e-10,	4086.8,	1.008527e-13,	4086.72,	3.520774e-12,	4086.58,	3.379433e-11
1671.66,	0.893583,	2.01268e-06,	5,	4138.81,	8.236948e-12,	4139.03,	3.08864e-12,	4139.26,	1.164152e-12,	4138.88,	5.366141e-10,	4139.18,	1.219774e-13,	4139.11,	3.525731e-12,	4138.96,	3.385392e-11
1707.66,	0.907268,	2.15497e-06,	5,	4191.19,	8.187887e-12,	4191.42,	3.063959e-12,	4191.64,	1.164695e-12,	4191.27,	5.38726e-10,	4191.57,	1.116014e-13,	4191.49,	3.477074e-12,	4191.34,	3.392457e-11
1743.66,	0.918068,	2.01726e-06,	5,	4243.58,	8.207327e-12,	4243.8,	3.091823e-12,	4244.02,	1.17759e-12,	4243.65,	5.371735e-10,	4243.95,	1.197823e-13,	4243.87,	3.480023e-12,	4243.72,	3.346741e-11
1779.66,	0.925942,	2.19349e-06,	5,	4295.96,	8.186154e-12,	4296.18,	3.047727e-12,	4296.41,	1.159673e-12,	4296.03,	5.379173e-10,	4296.33,	1.028534e-13,	4296.26,	3.488333e-12,	4296.11,	3.381079e-11
1815.66,	0.931814,	2.1172e-06,	5,	4348.34,	1.748909e-11,	4348.57,	3.043037e-12,	4348.79,	1.158126e-12,	4348.42,	5.36758e-10,	4348.71,	9.272034e-14,	4348.64,	3.468091e-12,	4348.49,	3.374266e-11
1851.66,	0.936379,	2.0287e-06,	5,	4400.73,	4.181532e-11,	4400.95,	2.977816e-12,	4401.17,	1.171685e-12,	4400.8,	5.375397e-10,	4401.1,	1.200496e-13,	4401.02,	3.483141e-12,	4400.875,	3.417525e-11
1887.66,	0.939848,	1.93029e-06,	5,	4453.11,	4.211569e-11,	4453.34,	2.959109e-12,	4453.56,	1.175804e-12,	4453.19,	5.364621e-10,	4453.48,	9.387459e-14,	4453.41,	3.439551e-12,	4453.26,	3.387448e-11
1923.66,	0.943088,	1.97644e-06,	5,	4505.49,	4.21481e-11,	4505.72,	3.57879e-12,	4505.94,	1.170814e-12,	4505.57,	5.354471e-10,	4505.87,	1.113381e-13,	4505.79,	3.530708e-12,	4505.64,	3.395105e-11
1951.76,	0.815349,	-0.00249682,	6,	4557.88,	4.231379e-11,	4558.1,	2.974515e-12,	4558.33,	1.183612e-12,	4557.95,	5.37712e-10,	4558.25,	1.184337e-13,	4558.18,	3.445059e-12,	4558.03,	3.403319e-11
1964.6,	0.4576726,	-0.00249656,	6,	4610.26,	4.244255e-11,	4610.48,	2.956906e-12,	4610.71,	1.156882e-12,	4610.34,	5.378166e-10,	4610.63,	9.625599e-14,	4610.56,	3.446452e-12,	4610.41,	3.383823e-11
1988.85,	0.121169,	-0.00249709,	6,	4662.64,	1.147925e-11,	4662.87,	2.952155e-12,	4663.09,	1.172835e-12,	4662.72,	5.373178e-10,	4663.02,	1.032503e-13,	4662.94,	3.436226e-12,	4662.79,	3.390156e-11
2024.85,	0.04124986,	-0.00249652,	6,	4715.03,	8.536834e-12,	4715.25,	2.992421e-12,	4715.47,	1.16774e-12,	4715.1,	5.38663e-10,	4715.4,	1.054616e-13,	4715.33,	3.438438e-12,	4715.18,	3.342621e-11
2060.85,	0.0391486,	-0.00249675,	6,	4767.41,	8.358818e-12,	4767.64,	2.948474e-12,	4767.86,	1.189177e-12,	4767.49,	5.363835e-10,	4767.79,	1.065511e-13,	4767.71,	3.406706e-12,	4767.56,	3.359918e-11
2096.85,	0.0387055,	-0.00249659,	6,	4819.8,	8.287578e-12,	4820.02,	2.886372e-12,	4820.24,	1.176938e-12,	4819.87,	5.361254e-10,	4820.17,	1.095561e-13,	4820.09,	3.387727e-12,	4819.94,	3.348057e-11
2132.85,	0.038461,	-0.0024964,	6,	4872.18,	8.269223e-12,	4872.4,	2.885853e-12,	4872.63,	1.174556e-12,	4872.25,	5.36646e-10,	4872.55,	1.013914e-13,	4872.48,	3.375237e-12,	4872.33,	3.350036e-11
2168.85,	0.038354,	-0.00249648,	6,	4924.56,	8.310477e-12,	4924.79,	2.887789e-12,	4925.01,	1.176622e-12,	4924.64,	5.376778e-10,	4924.94,	8.996231e-14,	4924.86,	3.378631e-12,	4924.71,	3.325007e-11
2204.85,	0.03827,	-0.00249675,	6,	4976.95,	8.287477e-12,	4977.17,	2.91846e-12,	4977.39,	1.268706e-12,	4977.02,	5.36638e-10,	4977.32,	1.106537e-13,	4977.24,	3.43391e-12,	4977.1,	3.338765e-11
2240.85,	0.0381821,	-0.00249652,	6,	5029.33,	8.113914e-12,	5029.56,	2.92159e-12,	5029.78,	1.26722e-12,	5029.41,	5.374421e-10,	5029.7,	1.071748e-13,	5029.63,	3.998725e-12,	5029.48,	3.373683e-11
2275.08,	0.101402,	2.26902e-06,	7,	5081.71,	1.041628e-11,	5081.94,	2.893447e-12,	5082.16,	1.229049e-12,	5081.79,	5.377433e-10,	5082.09,	8.355119e-14,	5082.01,	3.440049e-12,	5081.86,	3.389009e-11
2311.08,	0.152565,	2.26597e-06,	7,	5134.1,	8.234207e-12,	5134.32,	2.901333e-12,	5134.55,	1.231167e-12,	5134.17,	5.366458e-10,	5134.47,	1.067292e-13,	5134.4,	3.427976e-12,	5134.25,	3.34115e-11
2347.08,	0.2135,	2.14543e-06,	7,	5186.48,	8.005132e-12,	5186.7,	2.861861e-12,	5186.93,	1.249416e-12,	5186.56,	5.361243e-10,	5186.85,	1.065429e-13,	5186.78,	4.731529e-12,	5186.63,	3.387461e-11
2383.08,	0.279142,	2.04968e-06,	7,	5238.87,	8.191391e-12,	5239.09,	2.840242e-12,	5239.31,	1.215534e-12,	5238.94,	5.378891e-10,	5239.24,	9.770589e-14,	5239.16,	3.442475e-12,	5239.02,	3.35395e-11
2419.08,	0.338362,	2.28771e-06,	7,	5291.25,	8.231202e-12,	5291.47,	2.843831e-12,	5291.69,	1.20694e-12,	5291.32,	5.374903e-10,	5291.62,	9.591579e-14,	5291.55,	3.435128e-12,	5291.4,	3.371589e-11
2455,	0.58658,	2.20379e-06,	7,	5343.63,	7.915947e-12,	5343.86,	2.85332e-12,	5344.08,	1.25087e-12,	5343.71,	5.323613e-10,	5344.01,	9.187796e-14,	5343.93,	6.516483e-12,	5343.78,	3.346132e-11
2491,	0.696355,	2.162594e-06,	7,	5396.02,	8.184959e-12,	5396.24,	2.858662e-12,	5396.46,	1.216765e-12,	5396.09,	5.385844e-10,	5396.39,	1.027117e-13,	5396.32,	3.434683e-12,	5396.17,	3.359167e-11
2527,	0.7921288,	2.254525e-06,	7,	5448.4,	8.259839e-12,	5448.62,	2.854535e-12,	5448.85,	1.202416e-12,	5448.47,	5.389504e-10,	5448.77,	1.004477e-13,	5448.7,	3.424919e-12,	5448.55,	3.367021e-11
2546.21,	0.655206,	-0.00499692,	8,	5500.78,	8.04359e-12,	5501.01,	2.881318e-12,	5501.23,	1.266086e-12,	5500.86,	5.302128e-10,	5501.16,	9.369641e-14,	5501.08,	7.307044e-12,	5500.93,	3.349699e-11
2549.98,	0.294145,	-0.00499707,	8,	5553.17,	8.13834e-12,	5553.39,	2.860172e-12,	5553.61,	1.219102e-12,	5553.24,	5.38031e-10,	5553.54,	1.005611e-13,	5553.46,	3.525601e-12,	5553.32,	3.385994e-11
2574.55,	0.03163011,	-0.00499753,	8,	5605.55,	8.251982e-12,	5605.77,	2.79986e-12,	5606,	1.20901e-12,	5605.625,	5.378578e-10,	5605.92,	9.526375e-14,	5605.85,	3.407455e-12,	5605.7,	3.348179e-11
2610.55,	0.0282949,	-0.00499669,	8,	5657.93,	8.253562e-12,	5658.16,	2.755496e-12,	5658.38,	1.22619e-12,	5658.01,	5.378543e-10,	5658.31,	9.452664e-14,	5658.23,	3.43301e-12,	5658.08,	3.340703e-11
2646.55,	0.0281039,	-0.00499722,	8,	5710.32,	8.161926e-12,	5710.54,	2.718893e-12,	5710.77,	1.204506e-12,	5710.39,	5.394764e-10,	5710.69,	1.006583e-13,	5710.62,	3.802247e-12,	5710.47,	3.393684e-11
2682.55,	0.027932,	-0.0049963,	8,	5762.7,	8.59702e-12,	5762.93,	2.71121e-12,	5763.15,	1.184301e-12,	5762.78,	5.376293e-10,	5763.08,	9.18253e-14,	5763.0,	3.399529e-12,	5762.85,	3.358894e-11
2718.55,	0.0279664,	-0.00499707,	8,	5815.09,	8.27776e-12,	5815.31,	2.703458e-12,	5815.53,	1.17373e-12,	5815.16,	5.387216e-10,	5815.46,	9.941497e-14,	5815.38,	3.373213e-12,	5815.23,	3.326082e-11
2754.55,	0.0279396,	-0.004997144,	8,	5867.47,	8.291584e-12,	5867.69,	2.685205e-12,	5867.92,	1.1755e-12,	5867.54,	5.381782e-10,	5867.84,	9.792864e-14,	5867.77,	3.408532e-12,	5867.62,	3.352127e-11
2790.55,	0.0278632,	-0.00499703,	8,	5919.85,	8.297115e-12,	5920.08,	2.706808e-12,	5920.3,	1.171539e-12,	5919.93,	5.378573e-10,	5920.22,	9.748314e-14,	5920.15,	3.376513e-12,	5920,	3.362579e-11
2826.55,	0.0278861,	-0.00499688,	8,	5972.24,	8.281628e-12,	5972.46,	2.709723e-12,	5972.68,	1.166841e-12,	5972.31,	5.364115e-10,	5972.61,	9.331975e-14,	5972.53,	3.374294e-12,	5972.38,	3.333858e-11
2861.08,	0.0634769,	2.09889e-06,	9,	6024.62,	8.308901e-12,	6024.84,	2.720861e-12,	6025.07,	1.178546e-12,	6024.69,	5.379367e-10,	6024.99,	9.943523e-14,	6024.92,	3.375938e-12,	6024.77,	3.357136e-11
2897.08,	0.1154648,	2.11491e-06,	9,	6077,	8.298594e-12,	6077.23,	2.696864e-12,	6077.45,	1.163783e-12,	6077.08,	5.378152e-10,	6077.38,	8.632544e-14,	6077.3,	3.341201e-12,	6077.15,	3.331591e-11
2933.08,	0.159136,	2.2263e-06,	9,	6129.39,	8.33295e-12,	6129.61,	2.6417e-12,	6129.83,	1.165788e-12,	6129.46,	5.374454e-10,	6129.76,	1.078187e-13,	6129.68,	3.348438e-12,	6129.54,	3.348496e-11
2969.08,	0.209897,	2.16336e-06,	9,	6181.77,	1.136468e-11,	6181.99,	2.690369e-12,	6182.22,	1.165339e-12,	6181.85,	5.383314e-10,	6182.14,	9.685539e-14,	6182.07,	3.327675e-12,	6181.92,	3.323308e-11
3005.08,	0.2665,	2.06761e-06,	9,	6234.15,	1.179842e-11,	6234.38,	2.693925e-12,	6234.6,	1.173382e-12,	6234.23,	5.374244e-10,	6234.53,	1.160604e-13,	6234.45,	3.340885e-12,	6234.3,	3.356369e-11
3041.08,	0.31411,	2.29572e-06,	9,	6286.54,	1.18929e-11,	6286.76,	2.717094e-12,	6286.98,	1.165254e-12,	6286.61,	5.363935e-10,	6286.91,	9.003116e-14,	6286.84,	3.324382e-12,	6286.69,	3.327342e-11
3076.37,	0.453806,	2.18243e-06,	9,	6338.92,	1.196939e-11,	6339.14,	2.689964e-12,	6339.37,	1.161904e-12,	6339,	5.361457e-10,	6339.29,	9.528398e-14,	6339.22,	3.309579e-12,	6339.07,	3.325559e-11
3112.37,	0.621648,	2.20303e-06,	9,	6391.31,	1.203885e-11,	6391.53,	2.685833e-12,	6391.75,	1.170263e-12,	6391.38,	5.376252e-10,	6391.68,	1.003222e-13,	6391.6,	3.327269e-12,	6391.45,	3.333716e-11
3145.13,	0.686426,	-0.00999672,	10,	6443.69,	8.457722e-12,	6443.91,	2.687448e-12,	6444.14,	1.170907e-12,	6443.76,	5.364411e-10,	6444.06,	9.576593e-14,	6443.99,	3.334604e-12,	6443.84,	3.333509e-11
3146.26,	0.32491,	-0.00999679,	10,	6496.07,	8.390497e-12,	6496.3,	2.703588e-12,	6496.52,	1.149592e-12,	6496.15,	5.366192e-10,	6496.45,	9.530019e-14,	6496.37,	3.317485e-12,	6496.22,	3.335899e-11
3160.91,	0.02321,	-0.00999668,	10,	6548.46,	8.406225e-12,	6548.68,	2.657207e-12,	6548.9,	1.154469e-12,	6548.53,	5.362245e-10,	6548.83,	1.035298e-13,	6548.76,	3.295388e-12,	6548.61,	3.330493e-11
3196.91,	0.01903428,	-0.00999668,	10,	6600.84,	8.413666e-12,	6601.07,	2.649775e-12,	6601.29,	1.165327e-12,	6600.92,	5.371809e-10,	6601.21,	9.457525e-14,	6601.14,	3.28734e-12,	6600.99,	3.317532e-11
3232.91,	0.01884708,	-0.00999641,	10,	6653.22,	8.391845e-12,	6653.45,	2.663513e-12,	6653.67,	1.156319e-12,	6653.3,	5.358602e-10,	6653.6,	8.602168e-14,	6653.52,	3.31812e-12,	6653.37,	3.329666e-11
3268.91,	0.01887,	-0.00999675,	10,	6705.61,	8.403833e-12,	6705.83,	2.680912e-12,	6706.06,	1.168874e-12,	6705.68,	5.359922e-10,	6705.98,	1.075838e-13,	6705.91,	3.329396e-12,	6705.76,	3.316498e-11
3304.91,	0.01876685,	-0.00999691,	10,	6757.99,	1.612636e-11,	6758.21,	2.682512e-12,	6758.44,	1.173066e-12,	6758.07,	5.371056e-10,	6758.36,	9.594819e-14,	6758.29,	3.321502e-12,	6758.14,	3.343591e-11
3340.91,	0.018786,	-0.00999668,	10,	6810.38,	1.632311e-11,	6810.6,	2.676283e-12,	6810.82,	1.16695e-12,	6810.45,	5.371457e-10,	6810.75,	1.020637e-13,	6810.67,	3.312438e-12,	6810.53,	3.338513e-11
3376.91,	0.0187554,	-0.00999687,	10,	6862.76,	1.639817e-11,	6862.98,	2.670054e-12,	6863.21,	1.165128e-12,	6862.83,	5.379668e-10,	6863.13,	9.257861e-14,	6863.06,	3.299114e-12,	6862.91,	3.343896e-11
3412.91,	0.01876303,	-0.00999649,	10,	6915.14,	1.64729e-11,	6915.37,	2.686489e-12,	6915.59,	1.167955e-12,	6915.22,	5.37191e-10,	6915.52,	8.793732e-14,	6915.44,	3.305732e-12,	6915.29,	3.327592e-11
3447.08,	0.0251278,	2.31098e-06,	11,	6967.53,	1.648849e-11,	6967.75,	2.666842e-12,	6967.97,	1.154254e-12,	6967.6,	5.377477e-10,	6967.9,	9.515035e-14,	6967.83,	3.320024e-12,	6967.68,	3.344032e-11
3483.08,	0.0868921,	2.37163e-06,	11,	7019.91,	8.992583e-12,	7020.13,	3.406779e-12,	7020.36,	1.19296e-12,	7019.98,	5.346825e-10,	7020.28,	1.144971e-13,	7020.21,	3.481914e-12,	7020.06,	3.31612e-11
3519.08,	0.123144,	2.20227e-06,	11,	7072.29,	8.483715e-12,	7072.52,	2.62094e-12,	7072.74,	1.149143e-12,	7072.37,	5.371168e-10,	7072.67,	9.496404e-14,	7072.59,	3.30853e-12,	7072.44,	3.33915e-11
3555.08,	0.157459,	2.1233e-06,	11,	7124.68,	8.467615e-12,	7124.9,	2.63094e-12,	7125.12,	1.141743e-12,	7124.75,	5.37185e-10,	7125.05,	9.744668e-14,	7124.97,	3.268877e-12,	7124.83,	3.324963e-11
3591.08,	0.199441,	2.0596e-06,	11,	7177.06,	8.449499e-12,	7177.28,	2.632037e-12,	7177.51,	1.16646e-12,	7177.13,	5.362971e-10,	7177.43,	8.804667e-14,	7177.36,	3.293788e-12,	7177.21,	3.338763e-11
3627.08,	0.246963,	2.34684e-06,	11,	7229.44,	8.468543e-12,	7229.67,	2.652165e-12,	7229.89,	1.166242e-12,	7229.52,	5.367818e-10,	7229.82,	1.018409e-13,	7229.74,	3.296194e-12,	7229.59,	3.311167e-11
3663.08,	0.29309,	2.10118e-06,	11,	7281.83,	8.458961e-12,	7282.05,	2.633608e-12,	7282.28,	1.159543e-12,	7281.9,	5.362447e-10,	7282.2,	8.180969e-14,	7282.13,	3.305614e-12,	7281.98,	3.315625e-11
3699.08,	0.3313781,	2.30869e-06,	11,	7334.21,	2.413475e-11,	7334.44,	2.646941e-12,	7334.66,	1.178416e-12,	7334.29,	5.372112e-10,	7334.59,	8.652387e-14,	7334.51,	3.322203e-12,	7334.36,	3.334858e-11
3735.08,	0.492431,	2.13208e-06,	11,	7386.6,	2.486924e-11,	7386.82,	2.66945e-12,	7387.04,	1.170357e-12,	7386.67,	5.361984e-10,	7386.97,	9.053336e-14,	7386.89,	3.321822e-12,	7386.74,	3.33134e-11
3746,	0.291883,	-0.0149961,	12,	7438.98,	2.501017e-11,	7439.2,	2.686655e-12,	7439.42,	1.177128e-12,	7439.05,	5.349996e-10,	7439.35,	9.194276e-14,	7439.28,	3.306222e-12,	7439.13,	3.318567e-11
3760.63,	0.0164899,	-0.0149964,	12,	7491.36,	2.509352e-11,	7491.59,	2.939584e-12,	7491.81,	1.174504e-12,	7491.44,	5.358545e-10,	7491.74,	8.06676e-14,	7491.66,	3.407099e-12,	7491.51,	3.360906e-11
3796.63,	0.0139914,	-0.0149962,	12,	7543.75,	2.472035e-11,	7543.97,	1.138817e-11,	7544.19,	1.204777e-12,	7543.82,	5.2205e-10,	7544.12,	2.483815e-13,	7544.05,	4.800921e-12,	7543.9,	3.317683e-11
3832.63,	0.0138271,	-0.01499625,	12,	7596.13,	2.514586e-11,	7596.35,	2.631648e-12,	7596.58,	1.171256e-12,	7596.2,	5.358283e-10,	7596.5,	8.057849e-14,	7596.43,	3.290224e-12,	7596.28,	3.344619e-11
3868.63,	0.0138309,	-0.0149967,	12,	7648.51,	8.746595e-12,	7648.74,	2.635281e-12,	7648.96,	1.167825e-12,	7648.59,	5.36034e-10,	7648.89,	8.009655e-14,	7648.81,	3.2837e-12,	7648.66,	3.337907e-11
3904.63,	0.0138385,	-0.0149966,	12,	7700.9,	8.585036e-12,	7701.12,	2.667992e-12,	7701.35,	1.155874e-12,	7700.97,	5.372038e-10,	7701.27,	9.173215e-14,	7701.2,	3.30823e-12,	7701.05,	3.325708e-11
3940.63,	0.0137774,	-0.014996,	12,	7753.28,	8.519892e-12,	7753.51,	2.631943e-12,	7753.73,	1.147932e-12,	7753.36,	5.343133e-10,	7753.65,	9.530829e-14,	7753.58,	3.280362e-12,	7753.43,	3.320162e-11
3976.63,	0.0138156,	-0.0149961,	12,	7805.67,	8.50479e-12,	7805.89,	2.617279e-12,	7806.11,	1.153889e-12,	7805.74,	5.353852e-10,	7806.04,	1.069682e-13,	7805.96,	3.304739e-12,	7805.82,	3.334963e-11
4012.63,	0.0138194,	-0.0149963,	12,	7858.05,	8.511153e-12,	7858.27,	2.658406e-12,	7858.5,	1.145137e-12,	7858.12,	5.339695e-10,	7858.42,	8.940341e-14,	7858.35,	3.275429e-12,	7858.2,	3.343767e-11
4047.08,	0.0197869,	2.06342e-06,	13,	7910.43,	2.423027e-11,	7910.65,	2.606198e-12,	7910.88,	1.154553e-12,	7910.51,	5.360525e-10,	7910.8,	9.028227e-14,	7910.73,	3.292622e-12,	7910.58,	3.339936e-11
4083.08,	0.07688266,	2.25147e-06,	13,	7962.82,	3.363474e-11,	7963.04,	2.622718e-12,	7963.26,	1.131724e-12,	7962.89,	5.364509e-10,	7963.19,	9.905859e-14,	7963.11,	3.291176e-12,	7962.96,	3.342056e-11
4119.08,	0.110372,	2.24766e-06,	13,	8015.2,	3.399199e-11,	8015.42,	2.568573e-12,	8015.65,	1.116346e-12,	8015.27,	5.357292e-10,	8015.57,	1.045139e-13,	8015.5,	3.278762e-12,	8015.35,	3.338825e-11
4155.08,	0.139858,	2.17327e-06,	13,	8067.58,	3.409932e-11,	8067.81,	2.565734e-12,	8068.03,	1.11281e-12,	8067.66,	5.362283e-10,	8067.96,	8.832612e-14,	8067.88,	3.263838e-12,	8067.73,	3.339968e-11
4191.08,	0.172893,	2.11072e-06,	13,	8119.97,	3.412882e-11,	8120.19,	2.521691e-12,	8120.41,	1.116524e-12,	8120.04,	5.358217e-10,	8120.34,	9.477775e-14,	8120.27,	3.27677e-12,	8120.12,	3.319948e-11
4227.08,	0.211261,	2.12597e-06,	13,	8172.35,	3.4072e-11,	8172.58,	2.52685e-12,	8172.8,	1.13398e-12,	8172.43,	5.352717e-10,	8172.72,	1.090742e-13,	8172.65,	3.259233e-12,	8172.5,	3.326145e-11
4263.08,	0.255853,	2.2263e-06,	13,	8224.73,	9.826593e-12,	8224.96,	2.54446e-12,	8225.18,	1.110943e-12,	8224.81,	5.362153e-10,	8225.11,	9.318205e-14,	8225.03,	3.239761e-12,	8224.88,	3.315728e-11
4299.08,	0.298454,	2.13742e-06,	13,	8277.12,	8.765318e-12,	8277.34,	2.562604e-12,	8277.57,	1.122364e-12,	8277.19,	5.360377e-10,	8277.49,	8.655628e-14,	8277.42,	3.266588e-12,	8277.27,	3.308264e-11
4335.08,	0.3364974,	2.04015e-06,	13,	8329.5,	8.617594e-12,	8329.72,	2.536056e-12,	8329.95,	1.121364e-12,	8329.58,	5.338864e-10,	8329.87,	8.756473e-14,	8329.8,	3.276879e-12,	8329.65,	3.295756e-11
4347.14,	0.1131,	-0.0199959,	14,	8381.88,	8.598972e-12,	8382.11,	2.567444e-12,	8382.33,	1.120546e-12,	8381.96,	5.3602e-10,	8382.26,	1.02412e-13,	8382.18,	3.252118e-12,	8382.03,	3.315748e-11
4376.57,	0.01076695,	-0.0199963,	14,	8434.27,	8.576856e-12,	8434.49,	2.594169e-12,	8434.72,	1.127945e-12,	8434.34,	5.341241e-10,	8434.64,	8.578679e-14,	8434.57,	3.25362e-12,	8434.42,	3.313949e-11
4412.57,	0.0104002,	-0.0199964,	14,	8486.65,	8.552973e-12,	8486.88,	2.566302e-12,	8487.1,	1.123308e-12,	8486.73,	5.353627e-10,	8487.03,	8.677094e-14,	8486.95,	3.271145e-12,	8486.8,	3.302924e-11
4448.57,	0.01047278,	-0.0199966,	14,	8539.04,	4.158638e-11,	8539.26,	2.589577e-12,	8539.48,	1.125734e-12,	8539.11,	5.342772e-10,	8539.41,	8.696129e-14,	8539.34,	3.271108e-12,	8539.19,	3.352725e-11
4484.57,	0.0104346,	-0.0199962,	14,	8591.42,	4.230489e-11,	8591.64,	2.572895e-12,	8591.87,	1.130144e-12,	8591.49,	5.350813e-10,	8591.79,	9.66043e-14,	8591.72,	3.285838e-12,	8591.57,	3.362583e-11
4520.57,	0.0104231,	-0.0199965,	14,	8643.8,	4.254433e-11,	8644.03,	2.55908e-12,	8644.25,	1.134943e-12,	8643.88,	5.353487e-10,	8644.18,	8.356738e-14,	8644.1,	3.291431e-12,	8643.95,	3.343914e-11
4556.57,	0.01047278,	-0.0199968,	14,	8696.19,	4.265672e-11,	8696.41,	2.554103e-12,	8696.63,	1.130242e-12,	8696.26,	5.346274e-10,	8696.56,	9.16633e-14,	8696.49,	3.263093e-12,	8696.34,	3.348736e-11
4592.57,	0.01046896,	-0.0199969,	14,	8748.57,	4.282186e-11,	8748.79,	2.531719e-12,	8749.02,	1.132238e-12,	8748.64,	5.3612e-10,	8748.94,	9.001496e-14,	8748.87,	3.261428e-12,	8748.72,	3.355028e-11
4628.57,	0.010404,	-0.0199964,	14,	8800.95,	3.384804e-11,	8801.18,	2.553159e-12,	8801.4,	1.126009e-12,	8801.03,	5.357804e-10,	8801.33,	1.012982e-13,	8801.25,	3.247294e-12,	8801.1,	3.318569e-11
4663.08,	0.0440044,	2.12941e-06,	15,	8853.34,	9.087838e-12,	8853.56,	2.58191e-12,	8853.79,	1.129472e-12,	8853.41,	5.337551e-10,	8853.71,	1.001926e-13,	8853.64,	3.220415e-12,	8853.49,	3.265451e-11
4699.08,	0.080917,	2.22592e-06,	15,	8905.72,	8.738365e-12,	8905.95,	2.570853e-12,	8906.17,	1.121785e-12,	8905.8,	5.34264e-10,	8906.1,	1.018855e-13,	8906.02,	3.277074e-12,	8905.87,	3.278847e-11
4735.08,	0.109811,	2.16984e-06,	15,	8958.11,	8.658273e-12,	8958.33,	2.555302e-12,	8958.55,	1.117006e-12,	8958.18,	5.344247e-10,	8958.48,	8.892552e-14,	8958.4,	3.250425e-12,	8958.26,	3.286605e-11
4771.08,	0.138937,	2.18243e-06,	15,	9010.49,	8.629271e-12,	9010.71,	2.599863e-12,	9010.94,	1.127078e-12,	9010.56,	5.340244e-10,	9010.86,	1.042952e-13,	9010.79,	3.275206e-12,	9010.64,	3.295975e-11
4807.08,	0.168771,	2.24117e-06,	15,	9062.87,	8.614411e-12,	9063.1,	2.595372e-12,	9063.32,	1.114228e-12,	9062.95,	5.358918e-10,	9063.25,	8.758903e-14,	9063.17,	3.266568e-12,	9063.02,	3.304758e-11
4843.08,	0.203299,	2.15649e-06,	15,	9115.26,	8.588791e-12,	9115.48,	2.598474e-12,	9115.7,	1.122368e-12,	9115.33,	5.346834e-10,	9115.63,	1.028899e-13,	9115.56,	3.262623e-12,	9115.41,	3.296145e-11
4879.08,	0.244663,	2.04167e-06,	15,	9167.64,	8.583218e-12,	9167.86,	2.584818e-12,	9168.09,	1.144287e-12,	9167.71,	5.349757e-10,	9168.01,	9.086952e-14,	9167.94,	3.279747e-12,	9167.79,	3.261861e-11
4915.08,	0.288796,	2.34836e-06,	15,	9220.03,	8.58752e-12,	9220.25,	2.548522e-12,	9220.47,	1.160009e-12,	9220.1,	5.343128e-10,	9220.4,	8.927383e-14,	9220.32,	3.259068e-12,	9220.17,	3.305486e-11
4951.13,	0.918931,	0.00086581,	16,	9272.41,	8.549543e-12,	9272.63,	2.542411e-12,	9272.86,	1.177517e-12,	9272.48,	5.337096e-10,	9272.78,	1.039307e-13,	9272.71,	3.253993e-12,	9272.56,	3.27174e-11
4965.3,	1.10204,	0.00474921,	16,	9324.79,	8.586366e-12,	9325.02,	2.560279e-12,	9325.24,	1.152877e-12,	9324.87,	5.353872e-10,	9325.16,	8.15586e-14,	9325.09,	3.247189e-12,	9324.94,	3.322408e-11
4976.1,	1.31788,	0.00603342,	16,	9377.17,	8.55569e-12,	9377.4,	2.589253e-12,	9377.62,	1.128213e-12,	9377.25,	5.343787e-10,	9377.55,	9.961344e-14,	9377.47,	3.276227e-12,	9377.32,	3.337911e-11
4986.89,	1.53384,	0.00929518,	16,	9429.56,	8.600488e-12,	9429.78,	2.594409e-12,	9430.01,	1.131764e-12,	9429.63,	5.348871e-10,	9429.93,	9.146892e-14,	9429.86,	3.274547e-12,	9429.71,	3.298256e-11
4996.88,	1.66698,	0.0300591,	16,	9481.94,	8.615784e-12,	9482.17,	2.604845e-12,	9482.39,	1.130278e-12,	9482.02,	5.338348e-10,	9482.32,	8.23686e-14,	9482.24,	3.279815e-12,	9482.09,	3.319546e-11
5007.67,	1.45102,	8.60704e-05,	16,	9534.33,	8.561559e-12,	9534.55,	2.592837e-12,	9534.77,	1.118513e-12,	9534.4,	5.345146e-10,	9534.7,	9.73819e-14,	9534.62,	3.263806e-12,	9534.47,	3.315622e-11
5018.47,	1.23515,	-0.000366215,	16,	9586.71,	8.580107e-12,	9586.93,	2.596612e-12,	9587.16,	1.13413e-12,	9586.78,	5.332884e-10,	9587.08,	8.283435e-14,	9587.01,	3.260339e-12,	9586.86,	3.306401e-11
5029.26,	1.0193,	-0.00129865,	16,	9639.09,	8.573223e-12,	9639.32,	2.641955e-12,	9639.54,	1.114981e-12,	9639.17,	5.343639e-10,	9639.47,	8.636594e-14,	9639.39,	3.296903e-12,	9639.24,	3.311982e-11
5040.05,	0.803318,	-0.00964796,	16,	9691.48,	8.589573e-12,	9691.7,	2.595514e-12,	9691.92,	1.122648e-12,	9691.55,	5.353563e-10,	9691.85,	1.038173e-13,	9691.78,	3.256747e-12,	9691.63,	3.325681e-11
5050.85,	0.5874697,	-0.00259347,	16,	9743.86,	8.575608e-12,	9744.09,	2.559971e-12,	9744.31,	1.096193e-12,	9743.94,	5.345465e-10,	9744.23,	9.806634e-14,	9744.16,	3.276381e-12,	9744.01,	3.302887e-11
5061.64,	0.3715896,	-0.00157908,	16,	9796.24,	8.593367e-12,	9796.47,	2.543533e-12,	9796.69,	1.132534e-12,	9796.32,	5.348246e-10,	9796.62,	1.029952e-13,	9796.54,	3.25701e-12,	9796.39,	3.291394e-11
5072.44,	0.155588,	-0.00546569,	16,	9848.63,	8.574409e-12,	9848.85,	2.57217e-12,	9849.08,	1.114596e-12,	9848.7,	5.344153e-10,	9849.0,	9.142436e-14,	9848.93,	3.305768e-12,	9848.78,	3.301652e-11
5084.36,	0.103222,	0.00190746,	16,	9901.01,	8.583165e-12,	9901.23,	2.567577e-12,	9901.46,	1.125102e-12,	9901.09,	5.342612e-10,	9901.38,	1.075676e-13,	9901.31,	3.286304e-12,	9901.16,	3.262388e-11
5097.85,	0.373065,	0.000780669,	16,	9953.4,	8.555837e-12,	9953.62,	2.593983e-12,	9953.84,	1.112029e-12,	9953.47,	5.333536e-10,	9953.77,	9.556344e-14,	9953.69,	3.289333e-12,	9953.55,	3.2399e-11
5108.65,	0.588992,	0.000370377,	16,	10005.8,	8.592967e-12,	10006.0,	2.608142e-12,	10006.2,	1.120291e-12,	10005.8,	5.336458e-10,	10006.2,	8.666969e-14,	10006.1,	3.302876e-12,	10005.9,	3.293579e-11
5119.44,	0.804866,	0.0017608,	16,	10058.2,	8.590229e-12,	10058.4,	2.607413e-12,	10058.6,	1.123984e-12,	10058.2,	5.356723e-10,	10058.5,	9.118947e-14,	10058.5,	3.294112e-12,	10058.3,	3.309e-11
5129.81,	1.01238,	0.00462638,	17,	10110.5,	8.491569e-12,	10110.8,	4.437451e-12,	10111,	1.12803e-12,	10110.6,	5.301656e-10,	10110.9,	1.268253e-13,	10110.8,	3.655594e-12,	10110.7,	3.254124e-11
5140.61,	1.22829,	0.00503793,	17,	10162.9,	8.589184e-12,	10163.2,	2.561105e-12,	10163.4,	1.096388e-12,	10163.0,	5.337783e-10,	10163.3,	9.647875e-14,	10163.2,	3.278811e-12,	10163.1,	3.253682e-11
5151.4,	1.444187,	0.00576425,	17,	10215.3,	8.595819e-12,	10215.5,	2.541576e-12,	10215.8,	1.085477e-12,	10215.4,	5.346965e-10,	10215.7,	8.271689e-14,	10215.6,	3.277394e-12,	10215.5,	3.305414e-11
5162.2,	1.6601,	0.0560657,	17,	10267.7,	8.617938e-12,	10267.9,	2.491008e-12,	10268.1,	1.083201e-12,	10267.8,	5.340519e-10,	10268.1,	8.946418e-14,	10268.0,	3.278131e-12,	10267.8,	3.305654e-11
5172.17,	1.54105,	0.000759515,	17,	10320.1,	8.575998e-12,	10320.3,	2.478647e-12,	10320.5,	1.067341e-12,	10320.2,	5.343536e-10,	10320.5,	8.20608e-14,	10320.4,	3.246282e-12,	10320.2,	3.287265e-11
5182.96,	1.32509,	-0.000251926,	17,	10372.5,	8.605129e-12,	10372.7,	2.470114e-12,	10372.9,	1.078102e-12,	10372.5,	5.340465e-10,	10372.8,	9.632081e-14,	10372.8,	3.273048e-12,	10372.6,	3.285898e-11
5193.76,	1.10922,	-0.000759117,	17,	10424.8,	8.596054e-12,	10425.1,	2.496111e-12,	10425.3,	1.082747e-12,	10424.9,	5.360185e-10,	10425.2,	9.314156e-14,	10425.2,	3.262028e-12,	10425.0,	3.296324e-11
5204.55,	0.893319,	-0.00336562,	17,	10477.2,	8.629348e-12,	10477.5,	2.493718e-12,	10477.7,	1.078458e-12,	10477.3,	5.340193e-10,	10477.6,	9.525161e-14,	10477.5,	3.283416e-12,	10477.4,	3.31237e-11
5215.35,	0.677446,	-0.0112776,	17,	10529.6,	8.143501e-12,	10529.8,	3.678474e-11,	10530.1,	4.336367e-12,	10529.7,	4.907993e-10,	10530,	1.200513e-12,	10529.9,	1.370771e-11,	10529.8,	3.44e-11
5226.14,	0.461517,	-0.00138379,	17,	10582.0,	6.481811e-12,	10582.2,	7.904447e-10,	10582.5,	1.621083e-12,	10582.1,	4.520788e-11,	10582.4,	1.322934e-11,	10582.3,	1.615998e-10,	10582.2,	3.629085e-11
5236.94,	0.245564,	-0.00394419,	17,	10634.4,	6.312829e-12,	10634.6,	8.460488e-10,	10634.8,	1.685786e-12,	10634.5,	2.675656e-11,	10634.8,	1.414521e-11,	10634.7,	1.774936e-10,	10634.5,	3.636488e-11
5248.86,	0.013221,	0.0232713,	17,	10686.8,	5.312074e-12,	10687,	9.223547e-10,	10687.2,	1.342619e-12,	10686.8,	7.461693e-14,	10687.1,	1.542283e-11,	10687.1,	1.972339e-10,	10686.9,	2.115256e-11
5262.8,	0.292223,	0.00374919,	17,	10739.2,	5.152063e-12,	10739.4,	9.271806e-10,	10739.6,	1.353193e-12,	10739.2,	9.314562e-14,	10739.5,	1.554238e-11,	10739.5,	1.996863e-10,	10739.3,	1.960784e-11
5273.59,	0.507937,	0.000171568,	17,	10791.5,	5.056499e-12,	10791.8,	9.078416e-10,	10792,	1.306764e-12,	10791.6,	9.560801e-14,	10791.9,	1.556501e-11,	10791.8,	1.997234e-10,	10791.7,	1.860819e-11
5284.39,	0.723904,	0.000707312,	17,	10843.9,	4.967388e-12,	10844.1,	9.14771e-10,	10844.4,	1.327699e-12,	10844,	7.529733e-14,	10844.3,	1.557671e-11,	10844.2,	2.011832e-10,	10844.1,	1.78609e-11
5294.61,	0.928428,	0.00500408,	18,	10896.3,	5.195528e-12,	10896.5,	9.102886e-10,	10896.75,	1.720186e-12,	10896.4,	9.189822e-14,	10896.7,	1.569361e-11,	10896.6,	2.013429e-10,	10896.5,	2.202087e-11
5305.41,	1.14432,	0.00446108,	18,	,	,	,	,	,	,	,	,	,	,	,	,	,
5316.2,	1.36019,	0.00521418,	18,	,	,	,	,	,	,	,	,	,	,	,	,	,
5327,	1.57613,	0.0139635,	18,	,	,	,	,	,	,	,	,	,	,	,	,	,
5336.97,	1.625,	0.00784367,	18,	,	,	,	,	,	,	,	,	,	,	,	,	,
5347.76,	1.40902,	-0.000134981,	18,	,	,	,	,	,	,	,	,	,	,	,	,	,
5358.56,	1.19318,	-0.000502262,	18,	,	,	,	,	,	,	,	,	,	,	,	,	,
5369.35,	0.977281,	-0.00178948,	18,	,	,	,	,	,	,	,	,	,	,	,	,	,
5380.14,	0.7613681,	-0.0225699,	18,	,	,	,	,	,	,	,	,	,	,	,	,	,
5390.94,	0.545514,	-0.00184165,	18,	,	,	,	,	,	,	,	,	,	,	,	,	,
5401.73,	0.3295784,	-0.00365185,	18,	,	,	,	,	,	,	,	,	,	,	,	,	,
5412.53,	0.113595,	-0.00825108,	18,	,	,	,	,	,	,	,	,	,	,	,	,	,
5427.75,	0.211206,	0.00351423,	18,	,	,	,	,	,	,	,	,	,	,	,	,	,
5438.54,	0.427039,	0.000182885,	18,	,	,	,	,	,	,	,	,	,	,	,	,	,
5449.34,	0.642928,	0.000362988,	18,	,	,	,	,	,	,	,	,	,	,	,	,	,
5460.13,	0.858839,	0.00486055,	18,	,	,	,	,	,	,	,	,	,	,	,	,	,
5470.5,	1.06638,	0.00429477,	19,	,	,	,	,	,	,	,	,	,	,	,	,	,
5481.3,	1.28225,	0.00501592,	19,	,	,	,	,	,	,	,	,	,	,	,	,	,
5492.09,	1.49813,	0.00650967,	19,	,	,	,	,	,	,	,	,	,	,	,	,	,
5502.21,	1.70013,	0.122943,	19,	,	,	,	,	,	,	,	,	,	,	,	,	,
5512.86,	1.487,	8.49071e-05,	19,	,	,	,	,	,	,	,	,	,	,	,	,	,
5523.65,	1.271155,	-0.000366396,	19,	,	,	,	,	,	,	,	,	,	,	,	,	,
5534.45,	1.0553,	-0.00107742,	19,	,	,	,	,	,	,	,	,	,	,	,	,	,
5545.24,	0.839325,	-0.00591855,	19,	,	,	,	,	,	,	,	,	,	,	,	,	,
5556.04,	0.623479,	-0.00382954,	19,	,	,	,	,	,	,	,	,	,	,	,	,	,
5566.83,	0.4076,	-0.00135997,	19,	,	,	,	,	,	,	,	,	,	,	,	,	,
5577.63,	0.1915573,	-0.00443948,	19,	,	,	,	,	,	,	,	,	,	,	,	,	,
5589.55,	0.0673352,	0.00968067,	19,	,	,	,	,	,	,	,	,	,	,	,	,	,
5603.55,	0.3473044,	0.00170402,	19,	,	,	,	,	,	,	,	,	,	,	,	,	,
5614.34,	0.563206,	0.000279006,	19,	,	,	,	,	,	,	,	,	,	,	,	,	,
5625.14,	0.779149,	0.00105128,	19,	,	,	,	,	,	,	,	,	,	,	,	,	,
5635.6,	0.988402,	0.00455307,	20,	,	,	,	,	,	,	,	,	,	,	,	,	,
5646.4,	1.20433,	0.00471874,	20,	,	,	,	,	,	,	,	,	,	,	,	,	,
5657.19,	1.42021,	0.00528345,	20,	,	,	,	,	,	,	,	,	,	,	,	,	,
5667.99,	1.63615,	0.0365895,	20,	,	,	,	,	,	,	,	,	,	,	,	,	,
5677.96,	1.56504,	0.00134289,	20,	,	,	,	,	,	,	,	,	,	,	,	,	,
5688.75,	1.34908,	-0.000256288,	20,	,	,	,	,	,	,	,	,	,	,	,	,	,
5699.55,	1.13324,	-0.000682143,	20,	,	,	,	,	,	,	,	,	,	,	,	,	,
5710.34,	0.917349,	-0.0027863,	20,	,	,	,	,	,	,	,	,	,	,	,	,	,
5721.13,	0.701446,	-0.0204017,	20,	,	,	,	,	,	,	,	,	,	,	,	,	,
5731.93,	0.485538,	-0.00147511,	20,	,	,	,	,	,	,	,	,	,	,	,	,	,
5742.72,	0.269563,	-0.00405852,	20,	,	,	,	,	,	,	,	,	,	,	,	,	,
5755.56,	0.0127986,	-0.139391,	20,	,	,	,	,	,	,	,	,	,	,	,	,	,
5769.16,	0.279605,	0.00342225,	20,	,	,	,	,	,	,	,	,	,	,	,	,	,
5779.95,	0.495351,	0.000120121,	20,	,	,	,	,	,	,	,	,	,	,	,	,	,
5790.75,	0.711331,	0.000609764,	20,	,	,	,	,	,	,	,	,	,	,	,	,	,
5801.12,	0.9190957,	0.00655281,	20,	,	,	,	,	,	,	,	,	,	,	,	,	,
5835.82,	0.890932,	1.9486e-06,	21,	,	,	,	,	,	,	,	,	,	,	,	,	,
5871.82,	0.900089,	2.16755e-06,	21,	,	,	,	,	,	,	,	,	,	,	,	,	,
5907.82,	0.908605,	2.2591e-06,	21,	,	,	,	,	,	,	,	,	,	,	,	,	,
5943.82,	0.915608,	2.08287e-06,	21,	,	,	,	,	,	,	,	,	,	,	,	,	,
5979.82,	0.921881,	2.1809e-06,	21,	,	,	,	,	,	,	,	,	,	,	,	,	,
6015.82,	0.926152,	1.91312e-06,	21,	,	,	,	,	,	,	,	,	,	,	,	,	,
6051.82,	0.930763,	2.01116e-06,	21,	,	,	,	,	,	,	,	,	,	,	,	,	,
6087.82,	0.933384,	2.09851e-06,	21,	,	,	,	,	,	,	,	,	,	,	,	,	,
6115.59,	0.735472,	-0.00249679,	22,	,	,	,	,	,	,	,	,	,	,	,	,	,
6123.02,	0.374751,	-0.00249637,	22,	,	,	,	,	,	,	,	,	,	,	,	,	,
6154.6,	0.07144624,	-0.0024969,	22,	,	,	,	,	,	,	,	,	,	,	,	,	,
6190.6,	0.0390379,	-0.00249679,	22,	,	,	,	,	,	,	,	,	,	,	,	,	,
6226.6,	0.03827,	-0.00249648,	22,	,	,	,	,	,	,	,	,	,	,	,	,	,
6262.6,	0.0379299,	-0.00249698,	22,	,	,	,	,	,	,	,	,	,	,	,	,	,
6298.6,	0.0377809,	-0.00249652,	22,	,	,	,	,	,	,	,	,	,	,	,	,	,
6334.6,	0.0376167,	-0.0024961,	22,	,	,	,	,	,	,	,	,	,	,	,	,	,
6370.6,	0.0375861,	-0.00249659,	22,	,	,	,	,	,	,	,	,	,	,	,	,	,
6405.22,	0.04818387,	2.15725e-06,	23,	,	,	,	,	,	,	,	,	,	,	,	,	,
6441.22,	0.0999502,	2.09775e-06,	23,	,	,	,	,	,	,	,	,	,	,	,	,	,
6477.22,	0.132844,	2.24423e-06,	23,	,	,	,	,	,	,	,	,	,	,	,	,	,
6513.22,	0.170681,	2.221338e-06,	23,	,	,	,	,	,	,	,	,	,	,	,	,	,
6549.22,	0.211101,	2.21905e-06,	23,	,	,	,	,	,	,	,	,	,	,	,	,	,
6585.22,	0.255387,	2.10995e-06,	23,	,	,	,	,	,	,	,	,	,	,	,	,	,
6621.22,	0.297048,	2.088211e-06,	23,	,	,	,	,	,	,	,	,	,	,	,	,	,
6657.22,	0.33218,	2.35218e-06,	23,	,	,	,	,	,	,	,	,	,	,	,	,	,
6693.22,	0.4785625,	2.15001e-06,	23,	,	,	,	,	,	,	,	,	,	,	,	,	,
6705.68,	0.250458,	-0.00499688,	24,	,	,	,	,	,	,	,	,	,	,	,	,	,
6732.13,	0.0294219,	-0.00499753,	24,	,	,	,	,	,	,	,	,	,	,	,	,	,
6768.13,	0.0277868,	-0.00499676,	24,	,	,	,	,	,	,	,	,	,	,	,	,	,
6804.13,	0.0276454,	-0.00499695,	24,	,	,	,	,	,	,	,	,	,	,	,	,	,
6840.13,	0.0275958,	-0.00499692,	24,	,	,	,	,	,	,	,	,	,	,	,	,	,
6876.13,	0.0275538,	-0.00499661,	24,	,	,	,	,	,	,	,	,	,	,	,	,	,
6912.13,	0.0275232,	-0.00499665,	24,	,	,	,	,	,	,	,	,	,	,	,	,	,
6948.13,	0.0275003,	-0.00499676,	24,	,	,	,	,	,	,	,	,	,	,	,	,	,
6984.13,	0.0274735,	-0.00499692,	24,	,	,	,	,	,	,	,	,	,	,	,	,	,
7018.22,	0.0617997,	2.19616e-06,	25,	,	,	,	,	,	,	,	,	,	,	,	,	,
7054.22,	0.105681,	2.233545e-06,	25,	,	,	,	,	,	,	,	,	,	,	,	,	,
7090.22,	0.134464,	2.24918e-06,	25,	,	,	,	,	,	,	,	,	,	,	,	,	,
7126.22,	0.165432,	2.15039e-06,	25,	,	,	,	,	,	,	,	,	,	,	,	,	,
7162.22,	0.201145,	2.17327e-06,	25,	,	,	,	,	,	,	,	,	,	,	,	,	,
7198.22,	0.242069,	2.23164e-06,	25,	,	,	,	,	,	,	,	,	,	,	,	,	,
7234.22,	0.284532,	2.09927e-06,	25,	,	,	,	,	,	,	,	,	,	,	,	,	,
7270.22,	0.321957,	2.17823e-06,	25,	,	,	,	,	,	,	,	,	,	,	,	,	,
7301.41,	0.344971,	-0.00999664,	26,	,	,	,	,	,	,	,	,	,	,	,	,	,
7313.84,	0.0241956,	-0.00999622,	26,	,	,	,	,	,	,	,	,	,	,	,	,	,
7349.84,	0.0186675,	-0.00999664,	26,	,	,	,	,	,	,	,	,	,	,	,	,	,
7385.84,	0.01856819,	-0.00999649,	26,	,	,	,	,	,	,	,	,	,	,	,	,	,
7421.84,	0.0185797,	-0.009996945,	26,	,	,	,	,	,	,	,	,	,	,	,	,	,
7457.84,	0.0184459,	-0.00999698,	26,	,	,	,	,	,	,	,	,	,	,	,	,	,
7493.84,	0.0184498,	-0.00999653,	26,	,	,	,	,	,	,	,	,	,	,	,	,	,
7529.84,	0.018488,	-0.00999698,	26,	,	,	,	,	,	,	,	,	,	,	,	,	,
7565.84,	0.0185032,	-0.00999675,	26,	,	,	,	,	,	,	,	,	,	,	,	,	,
7601.22,	0.018381,	-0.009996945,	26,	,	,	,	,	,	,	,	,	,	,	,	,	,
7636.22,	0.0762447,	2.27512e-06,	27,	,	,	,	,	,	,	,	,	,	,	,	,	,
7672.22,	0.1085,	2.2633e-06,	27,	,	,	,	,	,	,	,	,	,	,	,	,	,
7708.22,	0.135308,	2.183956e-06,	27,	,	,	,	,	,	,	,	,	,	,	,	,	,
7744.22,	0.166173,	2.15764e-06,	27,	,	,	,	,	,	,	,	,	,	,	,	,	,
7780.22,	0.199708,	2.12636e-06,	27,	,	,	,	,	,	,	,	,	,	,	,	,	,
7816.22,	0.239295,	2.20265e-06,	27,	,	,	,	,	,	,	,	,	,	,	,	,	,
7852.22,	0.281831,	2.2179e-06,	27,	,	,	,	,	,	,	,	,	,	,	,	,	,
7888.22,	0.318267,	2.09775e-06,	27,	,	,	,	,	,	,	,	,	,	,	,	,	,
7903.89,	0.111178,	-0.0149958,	28,	,	,	,	,	,	,	,	,	,	,	,	,	,
7934.06,	0.0137087,	-0.0149962,	28,	,	,	,	,	,	,	,	,	,	,	,	,	,
7970.06,	0.0135635,	-0.0149962,	28,	,	,	,	,	,	,	,	,	,	,	,	,	,
8006.06,	0.0134336,	-0.01499602,	28,	,	,	,	,	,	,	,	,	,	,	,	,	,
8042.06,	0.0133916,	-0.0149962,	28,	,	,	,	,	,	,	,	,	,	,	,	,	,
8078.06,	0.0133916,	-0.01499625,	28,	,	,	,	,	,	,	,	,	,	,	,	,	,
8114.06,	0.0133648,	-0.0149961,	28,	,	,	,	,	,	,	,	,	,	,	,	,	,
8150.06,	0.0133686,	-0.0149965,	28,	,	,	,	,	,	,	,	,	,	,	,	,	,
8186.06,	0.0133152,	-0.0149965,	28,	,	,	,	,	,	,	,	,	,	,	,	,	,
8220.22,	0.0504837,	2.30411e-06,	29,	,	,	,	,	,	,	,	,	,	,	,	,	,
8256.22,	0.0878204,	2.17785e-06,	29,	,	,	,	,	,	,	,	,	,	,	,	,	,
8292.22,	0.1142,	2.34989e-06,	29,	,	,	,	,	,	,	,	,	,	,	,	,	,
8328.22,	0.139144,	2.12178e-06,	29,	,	,	,	,	,	,	,	,	,	,	,	,	,
8364.22,	0.167201,	2.16984e-06,	29,	,	,	,	,	,	,	,	,	,	,	,	,	,
8400.22,	0.199586,	2.28352e-06,	29,	,	,	,	,	,	,	,	,	,	,	,	,	,
8436.22,	0.238382,	2.05426e-06,	29,	,	,	,	,	,	,	,	,	,	,	,	,	,
8472.22,	0.283088,	2.10805e-06,	29,	,	,	,	,	,	,	,	,	,	,	,	,	,
8501.66,	0.252709,	-0.0199962,	30,	,	,	,	,	,	,	,	,	,	,	,	,	,
8518.32,	0.0113973,	-0.0199964,	30,	,	,	,	,	,	,	,	,	,	,	,	,	,
8554.32,	0.01009074,	-0.0199966,	30,	,	,	,	,	,	,	,	,	,	,	,	,	,
8590.32,	0.0100105,	-0.019997,	30,	,	,	,	,	,	,	,	,	,	,	,	,	,
8626.32,	0.010022,	-0.0199964,	30,	,	,	,	,	,	,	,	,	,	,	,	,	,
8662.32,	0.00993028,	-0.0199961,	30,	,	,	,	,	,	,	,	,	,	,	,	,	,
8698.32,	0.00991882,	-0.0199962,	30,	,	,	,	,	,	,	,	,	,	,	,	,	,
8734.32,	0.00994557,	-0.01999609,	30,	,	,	,	,	,	,	,	,	,	,	,	,	,
8770.32,	0.00989972,	-0.0199964,	30,	,	,	,	,	,	,	,	,	,	,	,	,	,
8805.22,	0.0198098,	2.179e-06,	31,	,	,	,	,	,	,	,	,	,	,	,	,	,
8841.22,	0.06794294,	2.3682e-06,	31,	,	,	,	,	,	,	,	,	,	,	,	,	,
8877.22,	0.0956637,	2.18624e-06,	31,	,	,	,	,	,	,	,	,	,	,	,	,	,
8913.22,	0.1210693,	2.153821e-06,	31,	,	,	,	,	,	,	,	,	,	,	,	,	,
8949.22,	0.148397,	2.03176e-06,	31,	,	,	,	,	,	,	,	,	,	,	,	,	,
8985.22,	0.178547,	2.10194e-06,	31,	,	,	,	,	,	,	,	,	,	,	,	,	,
9021.22,	0.213611,	2.13933e-06,	31,	,	,	,	,	,	,	,	,	,	,	,	,	,
9057.22,	0.256747,	2.28809e-06,	31,	,	,	,	,	,	,	,	,	,	,	,	,	,
9093.22,	0.299505,	2.01116e-06,	31,	,	,	,	,	,	,	,	,	,	,	,	,	,
9101.22,	0.3081539,	1.94898e-06,	31,	,	,	,	,	,	,	,	,	,	,	,	,	,