File: Quantification/development/chip crosscheck/OERonPt_RnD1_2021bW1D3_noSEM_1-2.csv
ixdat version = 0.2.3
name = 2022-07-06 19_26_18 OER_chip crosscheck_newchip_SEM_off AND 2022-07-06 19_26_18 OER_chip crosscheck_newchip_SEM_off_01_01_CVA_DUSB0_C01.mpt AND 2022-07-06 19_26_18 OER_chip crosscheck_newchip_SEM_off_01_02_CP_DUSB0_C01.mpt
technique = EC-MS
tstamp = 1657128378.0
backend_name = BackendBase(none, address=none)
id = 159
timecol 'time/s' for: 'Ewe/V' and 'raw_current' and 'selector'
timecol 'C0M2 time [s]' for: 'M2'
timecol 'C6M44 time [s]' for: 'M44'
timecol 'C3M28 time [s]' for: 'M28'
timecol 'C1M4 time [s]' for: 'M4'
timecol 'C5M40 time [s]' for: 'M40'
timecol 'C4M32 time [s]' for: 'M32'
timecol 'C2M18 time [s]' for: 'M18'
aliases = {"M2": ["M2 [A]"], "M4": ["M4 [A]"], "M18": ["M18 [A]"], "M28": ["M28 [A]"], "M32": ["M32 [A]"], "M40": ["M40 [A]"], "M44": ["M44 [A]"], "t": ["time/s"], "raw_potential": ["Ewe/V"], "raw_current": ["<I>/mA", "I/mA"], "cycle": ["cycle number"]}
N_header_lines = 18

time/s,	Ewe/V,	raw_current,	selector,	C0M2 time [s],	M2,	C6M44 time [s],	M44,	C3M28 time [s],	M28,	C1M4 time [s],	M4,	C5M40 time [s],	M40,	C4M32 time [s],	M32,	C2M18 time [s],	M18
32.0,	0.938832,	-0.000128876,	0,	0.519806,	9.040636e-12,	0.966725,	5.32006e-13,	0.742765,	2.017622e-12,	0.593792,	5.223712e-10,	0.891739,	7.675531e-14,	0.817752,	3.232973e-12,	0.668779,	3.312517e-11
48.469,	1.06788,	0.00317983,	0,	47.0821,	9.002432e-12,	47.5291,	5.373317e-13,	47.3051,	1.99463e-12,	47.1561,	5.210154e-10,	47.4541,	7.573067e-14,	47.3801,	3.242706e-12,	47.2311,	3.318925e-11
58.0639,	1.25977,	0.00549501,	0,	93.645,	8.663922e-12,	94.092,	6.397033e-13,	93.869,	2.006525e-12,	93.72,	5.181347e-10,	94.018,	6.846095e-14,	93.943,	5.616519e-12,	93.794,	3.351715e-11
67.6588,	1.45165,	0.00653198,	0,	140.209,	8.91816e-12,	140.656,	5.823352e-13,	140.432,	1.991584e-12,	140.283,	5.238704e-10,	140.581,	7.12271e-14,	140.507,	3.281958e-12,	140.358,	3.31933e-11
77.2537,	1.64363,	0.0400175,	0,	186.772,	8.970138e-12,	187.219,	5.499434e-13,	186.996,	1.997181e-12,	186.847,	5.218243e-10,	187.145,	7.544718e-14,	187.07,	3.241142e-12,	186.921,	3.324096e-11
86.2515,	1.57709,	0.00194076,	0,	233.336,	8.960751e-12,	233.783,	6.170193e-13,	233.559,	1.99369e-12,	233.41,	5.213949e-10,	233.708,	7.655688e-14,	233.634,	3.265499e-12,	233.485,	3.319398e-11
95.8464,	1.385156,	-0.000128325,	0,	279.899,	8.796154e-12,	280.346,	6.084293e-13,	280.122,	2.008331e-12,	279.973,	5.233455e-10,	280.271,	6.890646e-14,	280.197,	3.818869e-12,	280.048,	3.348362e-11
105.441,	1.1932,	-0.000496784,	0,	326.461,	8.922653e-12,	326.908,	5.787753e-13,	326.685,	2.014822e-11,	326.536,	5.011465e-10,	326.834,	3.210991e-13,	326.759,	5.891789e-12,	326.61,	3.394965e-11
115.036,	1.00131,	-0.00142537,	0,	373.026,	8.919424e-12,	373.473,	5.573549e-13,	373.249,	2.011089e-12,	373.1,	5.232867e-10,	373.398,	7.608709e-14,	373.324,	3.262551e-12,	373.175,	3.329226e-11
124.631,	0.809353,	-0.00811171,	0,	419.588,	8.586362e-12,	420.035,	6.077124e-13,	419.812,	2.045393e-12,	419.663,	5.080451e-10,	419.961,	7.460479e-14,	419.886,	8.898177e-12,	419.737,	3.327186e-11
134.226,	0.617511,	-0.00316211,	0,	466.152,	8.815202e-12,	466.599,	5.465415e-13,	466.375,	2.004326e-12,	466.226,	5.231461e-10,	466.524,	8.749994e-14,	466.45,	3.392012e-12,	466.301,	3.353752e-11
143.821,	0.425594,	-0.000873992,	0,	512.715,	9.064243e-12,	513.162,	5.357361e-13,	512.938,	1.997716e-12,	512.789,	5.21575e-10,	513.087,	6.357264e-14,	513.013,	3.256128e-12,	512.864,	3.297893e-11
153.416,	0.233579,	-0.00380406,	0,	559.278,	8.939637e-12,	559.725,	5.562169e-13,	559.502,	2.005787e-12,	559.353,	5.220368e-10,	559.651,	6.419228e-14,	559.576,	3.272202e-12,	559.427,	3.322113e-11
163.011,	0.0416995,	-0.0133158,	0,	605.842,	8.646592e-12,	606.289,	5.709224e-13,	606.065,	2.013138e-12,	605.916,	5.201019e-10,	606.214,	5.605586e-14,	606.14,	4.920412e-12,	605.991,	3.35707e-11
171.949,	0.157603,	0.00423216,	0,	652.405,	8.848593e-12,	652.852,	5.201882e-13,	652.629,	1.971638e-12,	652.48,	5.240556e-10,	652.778,	8.67102e-14,	652.703,	3.29519e-12,	652.554,	3.346837e-11
181.544,	0.3494,	0.00139579,	0,	698.969,	8.937098e-12,	699.416,	5.229624e-13,	699.192,	1.97289e-12,	699.043,	5.228121e-10,	699.341,	6.418013e-14,	699.267,	3.26153e-12,	699.118,	3.341788e-11
191.139,	0.541305,	0.000346147,	0,	745.531,	8.944089e-12,	745.978,	5.455857e-13,	745.754,	1.991738e-12,	745.605,	5.236208e-10,	745.903,	7.718058e-14,	745.829,	3.334421e-12,	745.68,	3.33659e-11
200.734,	0.733206,	0.000887107,	0,	792.093,	8.793494e-12,	792.54,	5.460879e-13,	792.317,	2.005946e-12,	792.168,	5.243634e-10,	792.466,	8.730554e-14,	792.391,	3.643403e-12,	792.242,	3.340839e-11
210.329,	0.925178,	0.00460351,	0,	838.658,	1.257034e-11,	839.105,	5.167214e-13,	838.882,	1.979171e-12,	838.733,	5.222234e-10,	839.03,	7.209785e-14,	838.957,	3.292776e-12,	838.807,	3.360289e-11
219.579,	1.11014,	0.00451896,	1,	885.22,	8.897172e-12,	885.667,	5.277981e-13,	885.444,	1.969058e-12,	885.295,	5.235669e-10,	885.593,	6.522502e-14,	885.518,	3.263531e-12,	885.369,	3.31235e-11
229.174,	1.30208,	0.00535374,	1,	931.785,	8.943643e-12,	932.232,	5.251656e-13,	932.008,	1.982383e-12,	931.859,	5.242861e-10,	932.157,	9.256242e-14,	932.083,	3.25748e-12,	931.934,	3.302283e-11
238.768,	1.49399,	0.00657024,	1,	978.348,	8.930656e-12,	978.795,	4.994928e-13,	978.571,	1.98425e-12,	978.422,	5.234402e-10,	978.72,	6.232119e-14,	978.646,	3.26074e-12,	978.497,	3.330576e-11
248.363,	1.685908,	0.0900726,	1,	1024.91,	8.93553e-12,	1025.36,	5.068799e-13,	1025.13,	1.969119e-12,	1024.99,	5.225405e-10,	1025.28,	7.411474e-14,	1025.21,	3.25716e-12,	1025.06,	3.323418e-11
257.346,	1.53513,	0.000581704,	1,	1071.47,	8.951228e-12,	1071.92,	5.175557e-13,	1071.7,	1.982711e-12,	1071.55,	5.217238e-10,	1071.85,	6.431378e-14,	1071.77,	3.263592e-12,	1071.62,	3.307666e-11
266.941,	1.34314,	-0.000231065,	1,	1118.04,	8.941359e-12,	1118.48,	5.02097e-13,	1118.26,	1.990677e-12,	1118.11,	5.223104e-10,	1118.41,	7.367329e-14,	1118.34,	3.258112e-12,	1118.19,	3.321166e-11
276.536,	1.1512,	-0.0006151,	1,	1164.6,	8.950155e-12,	1165.05,	5.180376e-13,	1164.82,	2.007217e-12,	1164.67,	5.219294e-10,	1164.97,	6.466611e-14,	1164.9,	3.266827e-12,	1164.75,	3.323962e-11
286.131,	0.959323,	-0.00189942,	1,	1211.16,	8.997151e-12,	1211.61,	5.420622e-13,	1211.39,	1.997594e-12,	1211.24,	5.215761e-10,	1211.54,	7.760985e-14,	1211.46,	3.243823e-12,	1211.31,	3.320467e-11
295.726,	0.767404,	-0.0177167,	1,	1257.73,	8.911477e-12,	1258.17,	5.37194e-13,	1257.95,	1.992224e-12,	1257.8,	5.209138e-10,	1258.1,	7.698615e-14,	1258.02,	3.549282e-12,	1257.875,	3.298976e-11
305.321,	0.575547,	-0.00169418,	1,	1304.29,	8.917986e-12,	1304.74,	5.219783e-13,	1304.51,	1.970075e-12,	1304.36,	5.215614e-10,	1304.66,	6.672755e-14,	1304.59,	3.734313e-12,	1304.44,	3.32854e-11
314.916,	0.383602,	-0.00104603,	1,	1350.85,	8.903402e-12,	1351.3,	5.124325e-13,	1351.08,	1.975563e-12,	1350.93,	5.216935e-10,	1351.23,	6.933169e-14,	1351.15,	3.805265e-12,	1351,	3.335487e-11
324.511,	0.191577,	-0.00381867,	1,	1397.42,	8.862032e-12,	1397.87,	5.101361e-13,	1397.64,	1.981253e-12,	1397.49,	5.20828e-10,	1397.79,	9.117326e-14,	1397.72,	3.824612e-12,	1397.57,	3.318766e-11
333.591,	0.010255,	-0.137935,	1,	1443.98,	8.852247e-12,	1444.43,	5.131493e-13,	1444.2,	1.987895e-12,	1444.06,	5.224771e-10,	1444.35,	8.04813e-14,	1444.28,	3.843452e-12,	1444.13,	3.325391e-11
343.044,	0.199537,	0.00354541,	1,	1490.54,	8.868309e-12,	1490.99,	5.10533e-13,	1490.77,	1.976174e-12,	1490.62,	5.217839e-10,	1490.92,	7.443062e-14,	1490.84,	3.657533e-12,	1490.69,	3.332049e-11
352.638,	0.391385,	0.000510035,	1,	1537.11,	8.907756e-12,	1537.56,	5.024979e-13,	1537.33,	1.97734e-12,	1537.18,	5.249802e-10,	1537.48,	8.496058e-14,	1537.41,	3.320607e-12,	1537.26,	3.315413e-11
362.233,	0.5833,	0.000362633,	1,	1583.67,	8.960033e-12,	1584.12,	5.213383e-13,	1583.89,	1.954563e-12,	1583.74,	5.239253e-10,	1584.04,	7.159563e-14,	1583.97,	3.285907e-12,	1583.82,	3.324905e-11
371.828,	0.775227,	0.000947453,	1,	1630.23,	8.9613e-12,	1630.68,	5.066329e-13,	1630.46,	1.975449e-12,	1630.31,	5.236797e-10,	1630.61,	7.607086e-14,	1630.53,	3.250676e-12,	1630.38,	3.323899e-11
381.078,	0.9602263,	0.00448156,	2,	1676.8,	8.964274e-12,	1677.24,	4.937782e-13,	1677.02,	1.982488e-12,	1676.87,	5.246839e-10,	1677.17,	6.908059e-14,	1677.1,	3.255447e-12,	1676.95,	3.294334e-11
390.673,	1.15211,	0.00437177,	2,	1723.36,	8.982187e-12,	1723.81,	4.94244e-13,	1723.58,	1.962607e-12,	1723.43,	5.218909e-10,	1723.73,	6.663035e-14,	1723.66,	3.243309e-12,	1723.51,	3.292301e-11
400.268,	1.344035,	0.00496324,	2,	1769.92,	8.972672e-12,	1770.37,	5.207916e-13,	1770.15,	1.97864e-12,	1770,	5.230379e-10,	1770.3,	6.51845e-14,	1770.22,	3.259391e-12,	1770.07,	3.279937e-11
409.863,	1.536,	0.00850407,	2,	1816.49,	8.890944e-12,	1816.93,	5.117682e-13,	1816.71,	1.975724e-12,	1816.56,	5.212755e-10,	1816.86,	6.67235e-14,	1816.78,	4.293645e-12,	1816.63,	3.302288e-11
418.846,	1.68501,	0.0596486,	2,	1863.05,	8.778537e-12,	1863.5,	5.205527e-13,	1863.27,	1.984833e-12,	1863.125,	5.222196e-10,	1863.42,	5.11108e-14,	1863.35,	4.434993e-12,	1863.2,	3.339989e-11
428.441,	1.49315,	0.000130443,	2,	1909.61,	8.771899e-12,	1910.06,	4.938431e-13,	1909.84,	1.987802e-12,	1909.69,	5.232775e-10,	1909.98,	6.107782e-14,	1909.91,	4.48499e-12,	1909.76,	3.324557e-11
438.036,	1.30116,	-0.000320002,	2,	1956.18,	8.741046e-12,	1956.62,	5.089819e-13,	1956.4,	2.027337e-12,	1956.25,	5.247536e-10,	1956.55,	7.479106e-14,	1956.47,	4.501425e-12,	1956.33,	3.33465e-11
447.631,	1.10923,	-0.000765248,	2,	2002.74,	8.736191e-12,	2003.19,	5.08743e-13,	2002.96,	2.012665e-12,	2002.81,	5.233631e-10,	2003.11,	7.468171e-14,	2003.04,	4.550239e-12,	2002.89,	3.335762e-11
457.226,	0.917378,	-0.00261425,	2,	2049.3,	8.687137e-12,	2049.75,	4.967388e-13,	2049.53,	2.004743e-12,	2049.38,	5.23656e-10,	2049.68,	8.364028e-14,	2049.6,	4.536923e-12,	2049.45,	3.332922e-11
466.821,	0.725408,	-0.0279426,	2,	2095.87,	8.768173e-12,	2096.31,	5.109663e-13,	2096.09,	1.99514e-12,	2095.94,	5.248815e-10,	2096.24,	6.17744e-14,	2096.16,	3.839568e-12,	2096.02,	3.337608e-11
476.415,	0.533516,	-0.00120435,	2,	2142.43,	8.850007e-12,	2142.88,	4.912915e-13,	2142.65,	1.97033e-12,	2142.5,	5.250038e-10,	2142.8,	7.867905e-14,	2142.73,	3.332405e-12,	2142.58,	3.331363e-11
486.01,	0.341625,	-0.00200891,	2,	2188.99,	8.861342e-12,	2189.44,	5.070824e-13,	2189.22,	1.979479e-12,	2189.07,	5.260648e-10,	2189.37,	7.431721e-14,	2189.29,	3.351662e-12,	2189.14,	3.329219e-11
495.605,	0.149634,	-0.00522555,	2,	2235.56,	8.904548e-12,	2236,	5.024168e-13,	2235.78,	1.958111e-12,	2235.63,	5.244805e-10,	2235.93,	7.953358e-14,	2235.85,	3.295109e-12,	2235.7,	3.284508e-11
504.543,	0.0496848,	0.0124425,	2,	2282.12,	8.918821e-12,	2282.57,	5.034698e-13,	2282.34,	1.953219e-12,	2282.19,	5.235847e-10,	2282.49,	6.079025e-14,	2282.42,	3.286701e-12,	2282.27,	3.329746e-11
514.138,	0.241524,	0.00349191,	2,	2328.68,	8.965359e-12,	2329.13,	5.060578e-13,	2328.91,	1.982115e-12,	2328.76,	5.249795e-10,	2329.06,	7.384336e-14,	2328.98,	3.287539e-12,	2328.83,	3.317419e-11
523.733,	0.433351,	0.000306264,	2,	2375.25,	8.932518e-12,	2375.69,	5.054706e-13,	2375.47,	1.975712e-12,	2375.32,	5.232496e-10,	2375.62,	5.083539e-14,	2375.54,	3.267463e-12,	2375.39,	3.309595e-11
533.328,	0.625295,	0.000444857,	2,	2421.81,	8.700076e-12,	2422.26,	5.216826e-13,	2422.03,	1.992929e-12,	2421.88,	5.219293e-10,	2422.18,	7.738305e-14,	2422.11,	5.558357e-12,	2421.96,	3.332922e-11
542.923,	0.817168,	0.00216149,	2,	2468.37,	8.602634e-12,	2468.82,	4.979497e-13,	2468.6,	1.987162e-12,	2468.45,	5.207939e-10,	2468.74,	7.134048e-14,	2468.67,	5.759318e-12,	2468.52,	3.346875e-11
552.173,	1.00224,	0.00426523,	3,	2514.94,	8.523217e-12,	2515.38,	5.097553e-13,	2515.16,	1.999712e-12,	2515.01,	5.228308e-10,	2515.31,	6.914943e-14,	2515.23,	5.815123e-12,	2515.09,	3.361527e-11
561.768,	1.194155,	0.00444277,	3,	2561.5,	8.485703e-12,	2561.95,	5.090305e-13,	2561.72,	1.991844e-12,	2561.57,	5.231409e-10,	2561.87,	8.144924e-14,	2561.8,	5.859514e-12,	2561.65,	3.352678e-11
571.363,	1.38602,	0.00485642,	3,	2608.06,	8.481439e-12,	2608.51,	5.099498e-13,	2608.29,	2.021113e-12,	2608.14,	5.248629e-10,	2608.43,	7.339381e-14,	2608.36,	5.865958e-12,	2608.21,	3.3685e-11
580.958,	1.57798,	0.0140908,	3,	2654.63,	8.439156e-12,	2655.07,	5.064181e-13,	2654.85,	2.010048e-12,	2654.7,	5.252457e-10,	2655,	6.331745e-14,	2654.92,	5.940088e-12,	2654.78,	3.392388e-11
589.941,	1.643079,	0.0137763,	3,	2701.19,	8.529402e-12,	2701.64,	5.075806e-13,	2701.41,	2.008748e-12,	2701.26,	5.259047e-10,	2701.56,	8.90065e-14,	2701.49,	4.084138e-12,	2701.34,	3.367501e-11
599.536,	1.4511,	-5.33961e-05,	3,	2747.75,	8.70752e-12,	2748.2,	4.960948e-13,	2747.98,	2.014467e-12,	2747.83,	5.29698e-10,	2748.125,	8.604192e-14,	2748.05,	3.489033e-12,	2747.9,	3.359703e-11
609.13,	1.2592,	-0.00038432,	3,	2794.31,	8.755744e-12,	2794.76,	4.902426e-13,	2794.54,	2.018447e-12,	2794.39,	5.267349e-10,	2794.69,	7.309412e-14,	2794.61,	3.402619e-12,	2794.46,	3.336397e-11
618.725,	1.06728,	-0.00096753,	3,	2840.88,	8.77117e-12,	2841.33,	4.923364e-13,	2841.1,	1.988158e-12,	2840.95,	5.27265e-10,	2841.25,	8.131154e-14,	2841.18,	3.344109e-12,	2841.03,	3.348529e-11
628.32,	0.875346,	-0.00378265,	3,	2887.44,	8.833686e-12,	2887.89,	5.019106e-13,	2887.66,	1.967292e-12,	2887.52,	5.272058e-10,	2887.81,	6.39614e-14,	2887.74,	3.355352e-12,	2887.59,	3.338405e-11
637.915,	0.683463,	-0.0119849,	3,	2934.01,	8.86148e-12,	2934.45,	4.947947e-13,	2934.23,	1.966673e-12,	2934.08,	5.277192e-10,	2934.38,	7.184672e-14,	2934.3,	3.345287e-12,	2934.15,	3.306049e-11
647.51,	0.491526,	-0.00101147,	3,	2980.57,	8.885181e-12,	2981.02,	4.850586e-13,	2980.79,	1.976895e-12,	2980.64,	5.264545e-10,	2980.94,	6.107376e-14,	2980.87,	3.342436e-12,	2980.72,	3.29523e-11
657.105,	0.299573,	-0.00410169,	3,	3027.13,	8.461553e-12,	3027.58,	5.071391e-13,	3027.36,	1.998311e-12,	3027.21,	5.194778e-10,	3027.5,	8.490387e-14,	3027.43,	6.881589e-12,	3027.28,	3.342693e-11
666.7,	0.107638,	-0.00706097,	3,	3073.69,	8.344643e-12,	3074.14,	5.149029e-13,	3073.92,	1.997538e-12,	3073.77,	5.229957e-10,	3074.07,	6.39614e-14,	3073.99,	7.128301e-12,	3073.84,	3.377625e-11
675.638,	0.0916531,	0.00667151,	3,	3120.26,	8.275343e-12,	3120.7,	5.317549e-13,	3120.48,	2.002142e-12,	3120.33,	5.224845e-10,	3120.63,	7.073702e-14,	3120.56,	7.227903e-12,	3120.41,	3.382443e-11
685.233,	0.283537,	0.003567,	3,	3166.82,	8.245137e-12,	3167.27,	5.063291e-13,	3167.05,	1.991831e-12,	3166.9,	5.248851e-10,	3167.19,	7.187912e-14,	3167.12,	7.315131e-12,	3166.97,	3.394234e-11
694.828,	0.475329,	0.000273499,	3,	3213.38,	8.238593e-12,	3213.83,	5.116589e-13,	3213.61,	2.003641e-12,	3213.46,	5.26575e-10,	3213.76,	7.86669e-14,	3213.68,	7.360395e-12,	3213.53,	3.406236e-11
704.423,	0.6672309,	0.000528095,	3,	3259.95,	8.143946e-12,	3260.4,	5.23412e-13,	3260.17,	2.012948e-12,	3260.02,	5.254906e-10,	3260.32,	6.430564e-14,	3260.25,	7.393255e-12,	3260.1,	3.400751e-11
714.018,	0.859161,	0.00466777,	3,	3306.51,	8.3927e-12,	3306.96,	4.992943e-13,	3306.73,	1.987162e-12,	3306.59,	5.322174e-10,	3306.88,	6.387229e-14,	3306.81,	4.252561e-12,	3306.66,	3.408874e-11
723.268,	1.04417,	0.00413779,	4,	3353.07,	8.552362e-12,	3353.52,	4.957262e-13,	3353.3,	1.969273e-12,	3353.15,	5.305469e-10,	3353.45,	7.138502e-14,	3353.37,	3.570896e-12,	3353.22,	3.377796e-11
732.863,	1.2361,	0.00456549,	4,	3399.64,	8.643729e-12,	3400.09,	4.995332e-13,	3399.86,	1.979527e-12,	3399.71,	5.30532e-10,	3400.01,	7.67148e-14,	3399.94,	3.492877e-12,	3399.79,	3.36127e-11
742.458,	1.42799,	0.00492586,	4,	3446.2,	8.697728e-12,	3446.65,	5.065842e-13,	3446.42,	1.951052e-12,	3446.28,	5.269793e-10,	3446.57,	7.508265e-14,	3446.5,	3.423254e-12,	3446.35,	3.32971e-11
752.052,	1.61997,	0.0276549,	4,	3492.76,	8.745959e-12,	3493.21,	4.848966e-13,	3492.99,	1.976619e-12,	3492.84,	5.300367e-10,	3493.14,	8.067568e-14,	3493.06,	3.3998e-12,	3492.91,	3.33869e-11
761.035,	1.60109,	0.00379388,	4,	3539.33,	8.779978e-12,	3539.77,	4.90113e-13,	3539.55,	1.982678e-12,	3539.4,	5.282227e-10,	3539.7,	7.45845e-14,	3539.625,	3.388622e-12,	3539.48,	3.320129e-11
770.63,	1.40912,	-0.000160341,	4,	3585.89,	8.797426e-12,	3586.34,	4.974192e-13,	3586.12,	1.970253e-12,	3585.97,	5.273098e-10,	3586.26,	6.906033e-14,	3586.19,	3.589421e-12,	3586.04,	3.303011e-11
780.225,	1.21721,	-0.000462279,	4,	3632.45,	8.283102e-12,	3632.9,	5.144534e-13,	3632.68,	2.013806e-12,	3632.53,	5.202018e-10,	3632.83,	6.182706e-14,	3632.75,	8.248418e-12,	3632.6,	3.378026e-11
789.82,	1.0253,	-0.00124433,	4,	3679.02,	8.106645e-12,	3679.46,	5.167619e-13,	3679.24,	1.998829e-12,	3679.09,	5.22922e-10,	3679.39,	6.987032e-14,	3679.32,	8.558024e-12,	3679.17,	3.409673e-11
799.415,	0.8333475,	-0.00603879,	4,	3725.58,	8.041703e-12,	3726.03,	5.124891e-13,	3725.8,	2.012263e-12,	3725.65,	5.239833e-10,	3725.95,	7.340596e-14,	3725.88,	8.703908e-12,	3725.73,	3.417697e-11
809.01,	0.641499,	-0.00416874,	4,	3772.14,	7.99105e-12,	3772.59,	5.331805e-13,	3772.37,	2.011652e-12,	3772.22,	5.236765e-10,	3772.52,	8.026258e-14,	3772.44,	8.77422e-12,	3772.29,	3.419685e-11
818.605,	0.449562,	-0.000896994,	4,	3818.71,	7.950283e-12,	3819.15,	5.248619e-13,	3818.93,	1.945677e-12,	3818.78,	5.270036e-10,	3819.08,	6.099276e-14,	3819.01,	8.856023e-12,	3818.86,	3.420156e-11
828.2,	0.2575807,	-0.00352633,	4,	3865.27,	7.94669e-12,	3865.72,	5.408876e-13,	3865.49,	1.97813e-12,	3865.34,	5.252979e-10,	3865.64,	7.394056e-14,	3865.57,	8.90051e-12,	3865.42,	3.425699e-11
837.795,	0.065662,	-0.00694569,	4,	3911.83,	8.273816e-12,	3912.28,	5.061874e-13,	3912.06,	1.982601e-12,	3911.91,	5.354011e-10,	3912.21,	6.888617e-14,	3912.13,	4.389118e-12,	3911.98,	3.42931e-11
846.733,	0.13363,	0.0051936,	4,	3958.4,	8.475132e-12,	3958.84,	5.023479e-13,	3958.62,	1.964878e-12,	3958.47,	5.338431e-10,	3958.77,	7.110557e-14,	3958.69,	3.710017e-12,	3958.55,	3.392321e-11
856.328,	0.3255052,	0.00367173,	4,	4004.96,	8.53261e-12,	4005.41,	4.926604e-13,	4005.18,	1.925108e-12,	4005.03,	5.317612e-10,	4005.33,	8.251032e-14,	4005.26,	3.562274e-12,	4005.11,	3.365602e-11
865.923,	0.517289,	0.000290003,	4,	4051.52,	8.574925e-12,	4051.97,	4.875251e-13,	4051.75,	1.942798e-12,	4051.6,	5.305106e-10,	4051.89,	8.042053e-14,	4051.82,	3.498705e-12,	4051.67,	3.367367e-11
875.517,	0.709235,	0.000620524,	4,	4098.09,	8.615153e-12,	4098.53,	4.852772e-13,	4098.31,	1.945492e-12,	4098.16,	5.293889e-10,	4098.46,	8.546276e-14,	4098.38,	3.463361e-12,	4098.24,	3.345915e-11
885.015,	0.899216,	0.00504368,	4,	4144.65,	8.672285e-12,	4145.1,	4.893232e-13,	4144.87,	1.952259e-12,	4144.72,	5.291324e-10,	4145.02,	6.780077e-14,	4144.95,	3.43457e-12,	4144.8,	3.336757e-11
914.869,	0.874183,	2.29763e-06,	5,	4191.21,	8.714523e-12,	4191.66,	4.776147e-13,	4191.44,	1.947857e-12,	4191.29,	5.286295e-10,	4191.59,	7.57266e-14,	4191.51,	3.41332e-12,	4191.36,	3.324135e-11
946.869,	0.880579,	2.16183e-06,	5,	4237.78,	8.693556e-12,	4238.22,	4.895986e-13,	4238.0,	1.925723e-12,	4237.85,	5.285343e-10,	4238.15,	5.994381e-14,	4238.08,	4.584846e-12,	4237.93,	3.323844e-11
978.869,	0.887856,	2.35561e-06,	5,	4284.34,	8.77123e-12,	4284.79,	4.82175e-13,	4284.56,	1.944284e-12,	4284.41,	5.290705e-10,	4284.71,	6.554493e-14,	4284.64,	3.450733e-12,	4284.49,	3.312704e-11
1010.87,	0.894596,	2.305258e-06,	5,	4330.9,	8.94905e-12,	4331.35,	4.897971e-13,	4331.13,	1.972675e-12,	4330.98,	5.282854e-10,	4331.28,	6.448385e-14,	4331.2,	3.349216e-12,	4331.05,	3.32081e-11
1042.87,	0.9004904,	2.20303e-06,	5,	4377.47,	8.823779e-12,	4377.91,	5.050453e-13,	4377.69,	1.946937e-12,	4377.54,	5.278272e-10,	4377.84,	6.320809e-14,	4377.76,	3.358665e-12,	4377.62,	3.336391e-11
1074.87,	0.905648,	2.303351e-06,	5,	4424.03,	8.530909e-12,	4424.48,	5.329335e-13,	4424.25,	1.955855e-12,	4424.1,	5.247449e-10,	4424.4,	8.824511e-14,	4424.33,	5.022909e-12,	4424.18,	3.325428e-11
1106.87,	0.910034,	2.32776e-06,	5,	4470.59,	8.737709e-12,	4471.04,	4.986625e-13,	4470.82,	1.917631e-12,	4470.67,	5.28328e-10,	4470.96,	5.277533e-14,	4470.89,	3.370734e-12,	4470.74,	3.327693e-11
1138.87,	0.914267,	2.26864e-06,	5,	4517.15,	8.820678e-12,	4517.6,	5.015866e-13,	4517.38,	1.926161e-12,	4517.23,	5.295818e-10,	4517.53,	7.504215e-14,	4517.45,	3.335151e-12,	4517.3,	3.313804e-11
1170.87,	0.918102,	2.578e-06,	5,	4563.72,	8.829689e-12,	4564.17,	5.225695e-13,	4563.94,	1.944373e-12,	4563.79,	5.29214e-10,	4564.09,	7.221121e-14,	4564.02,	3.412072e-12,	4563.87,	3.316708e-11
1195.83,	1.0793,	0.00250344,	6,	4610.28,	8.655106e-12,	4610.73,	4.843579e-13,	4610.51,	1.904218e-12,	4610.36,	5.281854e-10,	4610.65,	7.543904e-14,	4610.58,	3.752064e-12,	4610.43,	3.312492e-11
1226.46,	1.39317,	0.00250385,	6,	4656.85,	1.205257e-11,	4657.29,	4.857957e-13,	4657.07,	1.919798e-12,	4656.92,	5.273425e-10,	4657.22,	7.162801e-14,	4657.14,	3.325337e-12,	4657,	3.317483e-11
1258.46,	1.540513,	0.00250359,	6,	4703.41,	8.832151e-12,	4703.86,	5.034212e-13,	4703.63,	1.923589e-12,	4703.48,	5.269238e-10,	4703.78,	6.375484e-14,	4703.71,	3.329938e-12,	4703.56,	3.316495e-11
1290.46,	1.5664,	0.0025037,	6,	4749.97,	8.41209e-12,	4750.42,	5.306574e-13,	4750.2,	1.921584e-12,	4750.05,	5.184385e-10,	4750.35,	6.704748e-14,	4750.27,	8.334428e-12,	4750.12,	3.317017e-11
1322.46,	1.57858,	0.0025037,	6,	4796.54,	8.746226e-12,	4796.98,	4.841109e-13,	4796.76,	1.949185e-12,	4796.61,	5.280602e-10,	4796.91,	6.628203e-14,	4796.83,	3.388339e-12,	4796.68,	3.307407e-11
1354.46,	1.58648,	0.00250389,	6,	4843.1,	8.860765e-12,	4843.55,	4.85897e-13,	4843.32,	1.940279e-12,	4843.17,	5.28364e-10,	4843.47,	7.331685e-14,	4843.4,	3.319056e-12,	4843.25,	3.27812e-11
1386.46,	1.59233,	0.00250309,	6,	4889.66,	8.832968e-12,	4890.11,	5.014529e-13,	4889.88,	1.906814e-12,	4889.74,	5.283939e-10,	4890.03,	7.899088e-14,	4889.96,	3.32345e-12,	4889.81,	3.271588e-11
1418.46,	1.59696,	0.00250328,	6,	4936.23,	8.601658e-12,	4936.67,	4.866866e-13,	4936.45,	1.946836e-12,	4936.3,	5.268735e-10,	4936.6,	7.877218e-14,	4936.52,	4.400058e-12,	4936.375,	3.321505e-11
1450.46,	1.60073,	0.00250397,	6,	4982.79,	8.779805e-12,	4983.24,	4.877357e-13,	4983.01,	1.922386e-12,	4982.86,	5.282699e-10,	4983.16,	6.763877e-14,	4983.09,	3.310219e-12,	4982.94,	3.283513e-11
1482.46,	1.60403,	0.00250374,	6,	5029.35,	8.821843e-12,	5029.8,	4.760717e-13,	5029.58,	1.925351e-12,	5029.43,	5.276001e-10,	5029.72,	6.838396e-14,	5029.65,	3.286599e-12,	5029.5,	3.262102e-11
1507.43,	1.45227,	2.3621e-06,	7,	5075.92,	8.839923e-12,	5076.36,	4.921097e-13,	5076.14,	1.96227e-12,	5075.99,	5.260121e-10,	5076.29,	7.291996e-14,	5076.21,	3.291654e-12,	5076.07,	3.264371e-11
1539.43,	1.41409,	2.34569e-06,	7,	5122.48,	8.904285e-12,	5122.93,	4.716005e-13,	5122.7,	1.946864e-12,	5122.55,	5.278152e-10,	5122.85,	6.647237e-14,	5122.78,	3.305116e-12,	5122.63,	3.262789e-11
1571.43,	1.39008,	2.29114e-06,	7,	5169.04,	8.884623e-12,	5169.49,	4.799637e-13,	5169.26,	1.970698e-12,	5169.12,	5.27475e-10,	5169.41,	6.871202e-14,	5169.34,	3.308489e-12,	5169.19,	3.264665e-11
1603.43,	1.37165,	2.38536e-06,	7,	5215.61,	8.897712e-12,	5216.05,	4.753143e-13,	5215.83,	1.923637e-12,	5215.68,	5.276552e-10,	5215.98,	8.181777e-14,	5215.9,	3.262919e-12,	5215.75,	3.319271e-11
1635.43,	1.35675,	2.30297e-06,	7,	5262.17,	8.923677e-12,	5262.62,	4.776593e-13,	5262.39,	1.91657e-12,	5262.24,	5.277089e-10,	5262.54,	6.475519e-14,	5262.47,	3.269379e-12,	5262.32,	3.249876e-11
1667.43,	1.34399,	2.27703e-06,	7,	5308.73,	8.913568e-12,	5309.18,	4.972126e-13,	5308.96,	1.928753e-12,	5308.81,	5.267177e-10,	5309.11,	7.507455e-14,	5309.03,	3.262801e-12,	5308.88,	3.253427e-11
1699.43,	1.33293,	2.52803e-06,	7,	5355.29,	8.927301e-12,	5355.74,	4.718233e-13,	5355.52,	1.913018e-12,	5355.37,	5.264201e-10,	5355.67,	8.036788e-14,	5355.59,	3.270654e-12,	5355.44,	3.249999e-11
1731.43,	1.32326,	2.50361e-06,	7,	5401.86,	8.904844e-12,	5402.31,	4.85897e-13,	5402.08,	1.922637e-12,	5401.93,	5.253312e-10,	5402.23,	8.086603e-14,	5402.16,	3.428405e-12,	5402.01,	3.227528e-11
1763.43,	1.31472,	2.36896e-06,	7,	5448.42,	8.890767e-12,	5448.87,	4.840826e-13,	5448.64,	1.923868e-12,	5448.5,	5.262786e-10,	5448.79,	7.901924e-14,	5448.72,	3.758123e-12,	5448.57,	3.254409e-11
1785.39,	1.39912,	0.00500387,	8,	5494.98,	8.852806e-12,	5495.43,	4.783923e-13,	5495.21,	1.916996e-12,	5495.06,	5.263379e-10,	5495.36,	8.645095e-14,	5495.28,	3.837158e-12,	5495.13,	3.255391e-11
1798.46,	1.6235,	0.00500364,	8,	5541.55,	8.841729e-12,	5541.99,	4.774405e-13,	5541.77,	1.917518e-12,	5541.62,	5.267816e-10,	5541.92,	8.119003e-14,	5541.85,	3.834797e-12,	5541.7,	3.260394e-11
1830.46,	1.63308,	0.00500372,	8,	5588.11,	8.827859e-12,	5588.56,	4.859577e-13,	5588.33,	1.889116e-12,	5588.18,	5.263593e-10,	5588.48,	4.89157e-14,	5588.41,	3.830322e-12,	5588.26,	3.298695e-11
1862.46,	1.6384,	0.0050036,	8,	5634.67,	8.830839e-12,	5635.12,	4.815513e-13,	5634.9,	1.873661e-12,	5634.75,	5.265179e-10,	5635.05,	7.156321e-14,	5634.97,	3.852548e-12,	5634.82,	3.255915e-11
1894.46,	1.64226,	0.0050036,	8,	5681.24,	8.883019e-12,	5681.68,	4.708594e-13,	5681.46,	1.893635e-12,	5681.31,	5.279466e-10,	5681.61,	9.029034e-14,	5681.54,	3.341116e-12,	5681.39,	3.242399e-11
1926.46,	1.64547,	0.0050036,	8,	5727.8,	8.909741e-12,	5728.25,	4.627675e-13,	5728.02,	1.893806e-12,	5727.875,	5.255387e-10,	5728.17,	6.266134e-14,	5728.1,	3.291002e-12,	5727.95,	3.244022e-11
1958.46,	1.64815,	0.00500376,	8,	5774.36,	8.908104e-12,	5774.81,	4.747392e-13,	5774.59,	1.927388e-12,	5774.44,	5.268762e-10,	5774.74,	6.296913e-14,	5774.66,	3.300349e-12,	5774.51,	3.236622e-11
1990.46,	1.65051,	0.00500349,	8,	5820.93,	8.939802e-12,	5821.375,	4.798706e-13,	5821.15,	1.876192e-12,	5821,	5.271282e-10,	5821.3,	6.661007e-14,	5821.23,	3.276823e-12,	5821.08,	3.248124e-11
2022.46,	1.65267,	0.00500406,	8,	5867.49,	8.941128e-12,	5867.94,	4.659669e-13,	5867.71,	1.886394e-12,	5867.57,	5.266191e-10,	5867.86,	7.924198e-14,	5867.79,	3.272072e-12,	5867.64,	3.236499e-11
2054.46,	1.654585,	0.00500398,	8,	5914.05,	8.941808e-12,	5914.5,	4.739211e-13,	5914.28,	1.927088e-12,	5914.13,	5.257863e-10,	5914.43,	6.749702e-14,	5914.35,	3.234747e-12,	5914.2,	3.223986e-11
2085.16,	1.65609,	8.51659e-05,	9,	5960.62,	8.862218e-12,	5961.06,	4.782789e-13,	5960.84,	1.920867e-12,	5960.69,	5.256141e-10,	5960.99,	7.548359e-14,	5960.91,	4.127397e-12,	5960.77,	3.235294e-11
2109.25,	1.48317,	2.16069e-06,	9,	6007.18,	8.80557e-12,	6007.63,	4.708958e-13,	6007.4,	1.917194e-12,	6007.26,	5.262146e-10,	6007.55,	7.205326e-14,	6007.48,	4.410268e-12,	6007.33,	3.249834e-11
2141.25,	1.45397,	2.30869e-06,	9,	6053.74,	8.770036e-12,	6054.19,	4.787933e-13,	6053.97,	1.92561e-12,	6053.82,	5.263416e-10,	6054.12,	7.570634e-14,	6054.04,	4.476857e-12,	6053.89,	3.256457e-11
2173.25,	1.43646,	2.35599e-06,	9,	6100.31,	8.712191e-12,	6100.75,	4.687696e-13,	6100.53,	1.867229e-12,	6100.38,	5.2777e-10,	6100.68,	8.256297e-14,	6100.61,	4.490097e-12,	6100.46,	3.29841e-11
2205.25,	1.4233,	2.35408e-06,	9,	6146.87,	8.721833e-12,	6147.31,	4.78202e-13,	6147.09,	1.875965e-12,	6146.94,	5.278609e-10,	6147.24,	8.003982e-14,	6147.16,	4.521512e-12,	6147.02,	3.319464e-11
2237.25,	1.4124,	2.19578e-06,	9,	6193.43,	8.707258e-12,	6193.88,	4.664772e-13,	6193.66,	1.911123e-12,	6193.51,	5.278598e-10,	6193.81,	7.18467e-14,	6193.73,	4.542609e-12,	6193.58,	3.307331e-11
2269.25,	1.4031,	2.11453e-06,	9,	6240,	8.671572e-12,	6240.44,	4.666757e-13,	6240.22,	1.890375e-12,	6240.07,	5.276314e-10,	6240.37,	6.582437e-14,	6240.3,	4.55789e-12,	6240.15,	3.300507e-11
2301.25,	1.39471,	2.12407e-06,	9,	6286.56,	8.815298e-12,	6287.01,	4.586243e-13,	6286.78,	1.882259e-12,	6286.63,	5.293873e-10,	6286.93,	7.387574e-14,	6286.86,	3.366951e-12,	6286.71,	3.261119e-11
2333.25,	1.3872,	2.351796e-06,	9,	6333.12,	8.852839e-12,	6333.57,	4.604265e-13,	6333.35,	1.879509e-12,	6333.2,	5.290781e-10,	6333.5,	8.649955e-14,	6333.42,	3.297473e-12,	6333.27,	3.248282e-11
2365.25,	1.38022,	2.15649e-06,	9,	6379.69,	8.862671e-12,	6380.13,	4.460572e-13,	6379.91,	1.889294e-12,	6379.76,	5.282892e-10,	6380.06,	7.21626e-14,	6379.98,	3.293585e-12,	6379.84,	3.247459e-11
2385.29,	1.48641,	0.0100042,	10,	6426.25,	8.906095e-12,	6426.7,	4.631238e-13,	6426.47,	1.898811e-12,	6426.32,	5.29532e-10,	6426.62,	7.335328e-14,	6426.55,	3.296672e-12,	6426.4,	3.230261e-11
2400.98,	1.67497,	0.0100044,	10,	6472.81,	8.924252e-12,	6473.26,	4.60382e-13,	6473.04,	1.868465e-12,	6472.89,	5.287853e-10,	6473.18,	7.061144e-14,	6473.11,	3.283465e-12,	6472.96,	3.238293e-11
2432.98,	1.681706,	0.0100045,	10,	6519.38,	8.921756e-12,	6519.82,	4.597178e-13,	6519.6,	1.878573e-12,	6519.45,	5.284299e-10,	6519.75,	5.977369e-14,	6519.67,	3.265823e-12,	6519.53,	3.225977e-11
2464.98,	1.68572,	0.0100045,	10,	6565.94,	8.745797e-12,	6566.39,	4.819482e-13,	6566.16,	1.908369e-12,	6566.01,	5.234427e-10,	6566.31,	6.408692e-14,	6566.24,	5.342757e-12,	6566.09,	3.242086e-11
2496.98,	1.68885,	0.0100039,	10,	6612.5,	8.583708e-12,	6612.95,	4.67101e-13,	6612.73,	1.947889e-12,	6612.58,	5.241262e-10,	6612.875,	7.460878e-14,	6612.8,	5.726849e-12,	6612.65,	3.278555e-11
2528.98,	1.6914,	0.0100038,	10,	6659.07,	8.548401e-12,	6659.51,	4.87359e-13,	6659.29,	1.956937e-12,	6659.14,	5.268463e-10,	6659.44,	8.012486e-14,	6659.37,	5.823117e-12,	6659.22,	3.312333e-11
2560.98,	1.69372,	0.0100034,	10,	6705.63,	8.452412e-12,	6706.08,	4.758853e-13,	6705.85,	1.940992e-12,	6705.7,	5.261852e-10,	6706,	6.249527e-14,	6705.93,	5.853617e-12,	6705.78,	3.321014e-11
2592.98,	1.69577,	0.0100038,	10,	6752.19,	8.416099e-12,	6752.64,	4.717462e-13,	6752.42,	1.955564e-12,	6752.27,	5.283859e-10,	6752.57,	9.370445e-14,	6752.49,	5.917535e-12,	6752.34,	3.302078e-11
2624.98,	1.69767,	0.01000352,	10,	6798.76,	8.436386e-12,	6799.2,	4.850343e-13,	6798.98,	1.965174e-12,	6798.83,	5.282175e-10,	6799.13,	6.54234e-14,	6799.05,	5.948918e-12,	6798.9,	3.315565e-11
2656.98,	1.69933,	0.0100039,	10,	6845.32,	8.438784e-12,	6845.77,	4.788135e-13,	6845.54,	1.971217e-12,	6845.39,	5.299319e-10,	6845.69,	6.655741e-14,	6845.62,	5.32198e-12,	6845.47,	3.354478e-11
2685.2,	1.67977,	4.22126e-06,	11,	6891.88,	8.643555e-12,	6892.33,	4.68887e-13,	6892.11,	1.921908e-12,	6891.96,	5.33421e-10,	6892.26,	8.038e-14,	6892.18,	3.4749e-12,	6892.03,	3.300181e-11
2708.9,	1.50146,	2.29458e-06,	11,	6938.44,	8.705799e-12,	6938.89,	4.623787e-13,	6938.67,	1.906134e-12,	6938.52,	5.313099e-10,	6938.82,	6.78453e-14,	6938.74,	3.384022e-12,	6938.59,	3.2463e-11
2740.9,	1.472761,	2.24461e-06,	11,	6985.01,	8.772434e-12,	6985.45,	4.665623e-13,	6985.23,	1.864407e-12,	6985.08,	5.30918e-10,	6985.38,	7.397293e-14,	6985.31,	3.351026e-12,	6985.16,	3.242983e-11
2772.9,	1.45664,	2.186626e-06,	11,	7031.57,	8.788193e-12,	7032.02,	4.58442e-13,	7031.8,	1.866832e-12,	7031.65,	5.28557e-10,	7031.94,	7.735467e-14,	7031.87,	3.332749e-12,	7031.72,	3.244226e-11
2804.9,	1.44485,	2.24918e-06,	11,	7078.13,	8.825594e-12,	7078.58,	4.484102e-13,	7078.36,	1.894142e-12,	7078.21,	5.300038e-10,	7078.51,	7.795002e-14,	7078.43,	3.313143e-12,	7078.28,	3.237844e-11
2836.9,	1.43538,	2.23431e-06,	11,	7124.7,	8.838182e-12,	7125.14,	4.588592e-13,	7124.92,	1.887953e-12,	7124.77,	5.297803e-10,	7125.07,	7.300903e-14,	7125,	3.325601e-12,	7124.85,	3.235788e-11
2868.9,	1.42737,	2.10728e-06,	11,	7171.26,	8.551012e-12,	7171.71,	4.604387e-13,	7171.49,	1.952939e-12,	7171.34,	5.252239e-10,	7171.63,	6.457697e-14,	7171.56,	6.658682e-12,	7171.41,	3.265136e-11
2900.9,	1.42022,	2.45517e-06,	11,	7217.83,	8.373801e-12,	7218.27,	4.827622e-13,	7218.05,	1.889921e-12,	7217.9,	5.260027e-10,	7218.2,	7.154294e-14,	7218.12,	7.081986e-12,	7217.97,	3.272931e-11
2932.9,	1.41383,	2.17938e-06,	11,	7264.39,	8.27814e-12,	7264.84,	4.586243e-13,	7264.61,	1.938359e-12,	7264.46,	5.260578e-10,	7264.76,	7.423212e-14,	7264.69,	7.188987e-12,	7264.54,	3.317214e-11
2964.9,	1.40772,	2.35218e-06,	11,	7310.95,	8.224321e-12,	7311.4,	4.707055e-13,	7311.17,	1.933576e-12,	7311.03,	5.275648e-10,	7311.32,	6.366572e-14,	7311.25,	7.270275e-12,	7311.1,	3.327316e-11
2985.24,	1.5052,	0.015004,	12,	7357.52,	8.172108e-12,	7357.96,	4.876019e-13,	7357.74,	1.946277e-12,	7357.59,	5.267519e-10,	7357.89,	6.630631e-14,	7357.81,	7.300746e-12,	7357.66,	3.33877e-11
2999.61,	1.70801,	0.0150037,	12,	7404.08,	8.160745e-12,	7404.53,	4.779387e-13,	7404.3,	1.952911e-12,	7404.15,	5.300856e-10,	7404.45,	6.603901e-14,	7404.38,	7.435586e-12,	7404.23,	3.354746e-11
3031.61,	1.71425,	0.0150044,	12,	7450.64,	8.257939e-12,	7451.09,	4.718435e-13,	7450.87,	1.903691e-12,	7450.72,	5.33678e-10,	7451.02,	7.598172e-14,	7450.94,	5.388833e-12,	7450.79,	3.34256e-11
3063.61,	1.717824,	0.0150044,	12,	7497.21,	8.533197e-12,	7497.65,	4.689315e-13,	7497.43,	1.924431e-12,	7497.28,	5.359573e-10,	7497.58,	7.225978e-14,	7497.5,	3.591697e-12,	7497.36,	3.304398e-11
3095.61,	1.72041,	0.0150044,	12,	7543.77,	8.60084e-12,	7544.21,	4.523995e-13,	7543.99,	1.903104e-12,	7543.84,	5.337392e-10,	7544.14,	6.143012e-14,	7544.07,	3.493015e-12,	7543.92,	3.320464e-11
3127.61,	1.72263,	0.0150047,	12,	7590.33,	8.640019e-12,	7590.78,	4.511602e-13,	7590.56,	1.913496e-12,	7590.41,	5.340757e-10,	7590.7,	8.277354e-14,	7590.63,	3.414307e-12,	7590.48,	3.260595e-11
3159.61,	1.72469,	0.0150045,	12,	7636.89,	8.716305e-12,	7637.34,	4.600864e-13,	7637.12,	1.858303e-12,	7636.97,	5.324799e-10,	7637.27,	6.54234e-14,	7637.19,	3.386703e-12,	7637.04,	3.256231e-11
3191.61,	1.726481,	0.0150048,	12,	7683.46,	8.74975e-12,	7683.91,	4.69377e-13,	7683.68,	1.864419e-12,	7683.53,	5.3104e-10,	7683.83,	7.270527e-14,	7683.76,	3.362605e-12,	7683.61,	3.249117e-11
3223.61,	1.727948,	0.0150048,	12,	7730.02,	8.785985e-12,	7730.47,	4.443441e-13,	7730.24,	1.892943e-12,	7730.1,	5.327918e-10,	7730.39,	6.477946e-14,	7730.32,	3.3372e-12,	7730.17,	3.22528e-11
3255.61,	1.729606,	0.0150044,	12,	7776.58,	8.339693e-12,	7777.03,	4.792388e-13,	7776.81,	1.919592e-12,	7776.66,	5.250703e-10,	7776.96,	8.15302e-14,	7776.88,	8.03724e-12,	7776.73,	3.291431e-11
3285.17,	1.720204,	8.569843e-06,	13,	7823.15,	8.143544e-12,	7823.6,	4.818631e-13,	7823.37,	1.880728e-12,	7823.22,	5.257834e-10,	7823.52,	6.821384e-14,	7823.45,	8.487161e-12,	7823.3,	3.324307e-11
3306.26,	1.51738,	2.039e-06,	13,	7869.71,	8.063127e-12,	7870.16,	4.830457e-13,	7869.93,	1.903003e-12,	7869.79,	5.272667e-10,	7870.08,	7.302523e-14,	7870.01,	8.668859e-12,	7869.86,	3.355939e-11
3338.26,	1.48669,	2.36667e-06,	13,	7916.28,	8.013438e-12,	7916.72,	4.858928e-13,	7916.5,	1.905251e-12,	7916.35,	5.284598e-10,	7916.65,	7.240558e-14,	7916.57,	8.769473e-12,	7916.42,	3.344074e-11
3370.26,	1.4703,	2.29076e-06,	13,	7962.84,	7.952685e-12,	7963.28,	4.787932e-13,	7963.06,	1.920313e-12,	7962.91,	5.28547e-10,	7963.21,	5.594239e-14,	7963.13,	8.873862e-12,	7962.99,	3.355723e-11
3402.26,	1.45889,	2.2839e-06,	13,	8009.4,	7.943871e-12,	8009.85,	4.96354e-13,	8009.62,	1.968102e-12,	8009.47,	5.285342e-10,	8009.77,	6.990674e-14,	8009.7,	8.902357e-12,	8009.55,	3.362216e-11
3434.26,	1.44993,	2.37392e-06,	13,	8055.96,	8.126753e-12,	8056.41,	4.757314e-13,	8056.19,	1.964376e-12,	8056.04,	5.361446e-10,	8056.34,	7.037653e-14,	8056.26,	5.307979e-12,	8056.11,	3.378306e-11
3466.26,	1.44247,	2.21829e-06,	13,	8102.53,	8.403974e-12,	8102.97,	4.675423e-13,	8102.75,	1.956754e-12,	8102.6,	5.387354e-10,	8102.9,	7.524461e-14,	8102.83,	3.747479e-12,	8102.68,	3.35522e-11
3498.26,	1.43578,	2.26406e-06,	13,	8149.09,	8.489514e-12,	8149.54,	4.53663e-13,	8149.31,	1.957989e-12,	8149.16,	5.366808e-10,	8149.46,	7.283487e-14,	8149.39,	3.560034e-12,	8149.24,	3.31502e-11
3530.26,	1.42988,	2.27398e-06,	13,	8195.65,	8.560997e-12,	8196.1,	4.629537e-13,	8195.88,	1.944454e-12,	8195.73,	5.352015e-10,	8196.03,	7.988994e-14,	8195.95,	3.508267e-12,	8195.8,	3.30417e-11
3562.26,	1.42446,	2.10957e-06,	13,	8242.22,	8.598499e-12,	8242.66,	4.514032e-13,	8242.44,	1.85934e-12,	8242.29,	5.351165e-10,	8242.59,	9.37085e-14,	8242.52,	3.446691e-12,	8242.37,	3.296993e-11
3585.21,	1.50123,	0.0200033,	14,	8288.78,	8.679879e-12,	8289.23,	4.525939e-13,	8289,	1.862961e-12,	8288.86,	5.347244e-10,	8289.15,	7.895845e-14,	8289.08,	3.400546e-12,	8288.93,	3.261201e-11
3596.69,	1.732,	0.0200045,	14,	8335.34,	8.671338e-12,	8335.79,	4.55846e-13,	8335.57,	1.8603e-12,	8335.42,	5.317595e-10,	8335.72,	8.046099e-14,	8335.64,	3.397075e-12,	8335.49,	3.233061e-11
3628.69,	1.73864,	0.0200042,	14,	8381.91,	8.705807e-12,	8382.35,	4.336319e-13,	8382.13,	1.863503e-12,	8381.98,	5.319245e-10,	8382.28,	7.285917e-14,	8382.2,	3.377615e-12,	8382.06,	3.246299e-11
3660.69,	1.74192,	0.0200043,	14,	8428.47,	8.761053e-12,	8428.92,	4.454619e-13,	8428.69,	1.846724e-12,	8428.54,	5.31198e-10,	8428.84,	7.503401e-14,	8428.77,	3.363573e-12,	8428.62,	3.225662e-11
3692.69,	1.74435,	0.0200045,	14,	8475.03,	8.770522e-12,	8475.48,	4.455996e-13,	8475.26,	1.871632e-12,	8475.11,	5.316019e-10,	8475.41,	8.200809e-14,	8475.33,	3.355611e-12,	8475.18,	3.228275e-11
3724.69,	1.746389,	0.0200039,	14,	8521.6,	8.785268e-12,	8522.04,	4.289015e-13,	8521.82,	1.872008e-12,	8521.67,	5.319584e-10,	8521.97,	7.386357e-14,	8521.89,	3.333729e-12,	8521.75,	3.234874e-11
3756.69,	1.74823,	0.0200043,	14,	8568.16,	8.815716e-12,	8568.61,	4.580371e-13,	8568.38,	1.811348e-12,	8568.23,	5.303568e-10,	8568.53,	7.014569e-14,	8568.46,	3.296979e-12,	8568.31,	3.19953e-11
3788.69,	1.7498,	0.0200046,	14,	8614.72,	8.819405e-12,	8615.17,	4.479567e-13,	8614.95,	1.855488e-12,	8614.8,	5.311969e-10,	8615.1,	5.342329e-14,	8615.02,	3.290301e-12,	8614.87,	3.218063e-11
3820.69,	1.7512,	0.0200038,	14,	8661.29,	8.830296e-12,	8661.73,	4.368313e-13,	8661.51,	1.831824e-12,	8661.36,	5.310703e-10,	8661.66,	7.479506e-14,	8661.58,	3.278722e-12,	8661.43,	3.202494e-11
3852.69,	1.75252,	0.0200042,	14,	8707.85,	8.857074e-12,	8708.3,	4.520754e-13,	8708.07,	1.86126e-12,	8707.92,	5.317204e-10,	8708.22,	6.207811e-14,	8708.15,	3.305079e-12,	8708,	3.207659e-11
3884.69,	1.75381,	0.0200042,	14,	,	,	,	,	,	,	,	,	,	,	,	,	,
3902.08,	1.534086,	2.27398e-06,	15,	,	,	,	,	,	,	,	,	,	,	,	,	,
3934.08,	1.49875,	2.21905e-06,	15,	,	,	,	,	,	,	,	,	,	,	,	,	,
3966.08,	1.48152,	2.29725e-06,	15,	,	,	,	,	,	,	,	,	,	,	,	,	,
3998.08,	1.46977,	2.05617e-06,	15,	,	,	,	,	,	,	,	,	,	,	,	,	,
4030.08,	1.4604,	2.23736e-06,	15,	,	,	,	,	,	,	,	,	,	,	,	,	,
4062.08,	1.45292,	2.24079e-06,	15,	,	,	,	,	,	,	,	,	,	,	,	,	,
4094.08,	1.44645,	2.29992e-06,	15,	,	,	,	,	,	,	,	,	,	,	,	,	,
4126.08,	1.44072,	2.162976e-06,	15,	,	,	,	,	,	,	,	,	,	,	,	,	,
4158.08,	1.4356,	2.235071e-06,	15,	,	,	,	,	,	,	,	,	,	,	,	,	,
4189.21,	0.898281,	-0.000988233,	16,	,	,	,	,	,	,	,	,	,	,	,	,	,
4203.58,	1.04532,	0.00078958,	16,	,	,	,	,	,	,	,	,	,	,	,	,	,
4213.18,	1.23725,	0.000753246,	16,	,	,	,	,	,	,	,	,	,	,	,	,	,
4222.77,	1.42912,	0.000678085,	16,	,	,	,	,	,	,	,	,	,	,	,	,	,
4232.37,	1.62105,	0.00518116,	16,	,	,	,	,	,	,	,	,	,	,	,	,	,
4241.59,	1.59559,	0.000827023,	16,	,	,	,	,	,	,	,	,	,	,	,	,	,
4251.18,	1.40365,	-0.000228167,	16,	,	,	,	,	,	,	,	,	,	,	,	,	,
4260.78,	1.21177,	-0.000346334,	16,	,	,	,	,	,	,	,	,	,	,	,	,	,
4270.37,	1.01984,	-0.000935522,	16,	,	,	,	,	,	,	,	,	,	,	,	,	,
4279.97,	0.827926,	-0.00382915,	16,	,	,	,	,	,	,	,	,	,	,	,	,	,
4289.56,	0.636072,	-0.0199992,	16,	,	,	,	,	,	,	,	,	,	,	,	,	,
4299.16,	0.444159,	-0.00105466,	16,	,	,	,	,	,	,	,	,	,	,	,	,	,
4308.75,	0.252202,	-0.00358228,	16,	,	,	,	,	,	,	,	,	,	,	,	,	,
4318.35,	0.0603153,	-0.00781964,	16,	,	,	,	,	,	,	,	,	,	,	,	,	,
4327.3,	0.139951,	0.00504092,	16,	,	,	,	,	,	,	,	,	,	,	,	,	,
4336.9,	0.331836,	0.00291373,	16,	,	,	,	,	,	,	,	,	,	,	,	,	,
4346.49,	0.52358,	0.000155892,	16,	,	,	,	,	,	,	,	,	,	,	,	,	,
4356.09,	0.715517,	0.000618653,	16,	,	,	,	,	,	,	,	,	,	,	,	,	,
4365.68,	0.907411,	0.004936,	17,	,	,	,	,	,	,	,	,	,	,	,	,	,
4375.28,	1.0993,	0.00386713,	17,	,	,	,	,	,	,	,	,	,	,	,	,	,
4384.87,	1.29118,	0.00458981,	17,	,	,	,	,	,	,	,	,	,	,	,	,	,
4394.47,	1.48308,	0.00551048,	17,	,	,	,	,	,	,	,	,	,	,	,	,	,
4404.06,	1.67502,	0.0759862,	17,	,	,	,	,	,	,	,	,	,	,	,	,	,
4413.28,	1.5416,	0.000550897,	17,	,	,	,	,	,	,	,	,	,	,	,	,	,
4422.88,	1.34964,	-0.000300532,	17,	,	,	,	,	,	,	,	,	,	,	,	,	,
4432.47,	1.15775,	-0.00061101,	17,	,	,	,	,	,	,	,	,	,	,	,	,	,
4442.07,	0.9658469,	-0.00181661,	17,	,	,	,	,	,	,	,	,	,	,	,	,	,
4451.66,	0.7739675,	-0.0165565,	17,	,	,	,	,	,	,	,	,	,	,	,	,	,
4461.26,	0.582066,	-0.00201783,	17,	,	,	,	,	,	,	,	,	,	,	,	,	,
4470.85,	0.390189,	-0.00111452,	17,	,	,	,	,	,	,	,	,	,	,	,	,	,
4480.45,	0.198216,	-0.00382652,	17,	,	,	,	,	,	,	,	,	,	,	,	,	,
4489.83,	0.0106895,	-0.161465,	17,	,	,	,	,	,	,	,	,	,	,	,	,	,
4499,	0.193896,	0.00354665,	17,	,	,	,	,	,	,	,	,	,	,	,	,	,
4508.59,	0.385709,	0.000492465,	17,	,	,	,	,	,	,	,	,	,	,	,	,	,
4518.19,	0.577603,	0.00028432,	17,	,	,	,	,	,	,	,	,	,	,	,	,	,
4527.78,	0.769493,	0.000834385,	17,	,	,	,	,	,	,	,	,	,	,	,	,	,
4537.38,	0.961357,	0.00442492,	18,	,	,	,	,	,	,	,	,	,	,	,	,	,
4546.97,	1.153291,	0.00404139,	18,	,	,	,	,	,	,	,	,	,	,	,	,	,
4556.57,	1.34516,	0.00458744,	18,	,	,	,	,	,	,	,	,	,	,	,	,	,
4566.16,	1.53707,	0.00826017,	18,	,	,	,	,	,	,	,	,	,	,	,	,	,
4575.38,	1.6795,	0.0482817,	18,	,	,	,	,	,	,	,	,	,	,	,	,	,
4584.98,	1.48762,	1.5934e-06,	18,	,	,	,	,	,	,	,	,	,	,	,	,	,
4594.57,	1.29567,	-0.000372315,	18,	,	,	,	,	,	,	,	,	,	,	,	,	,
4604.17,	1.1038,	-0.000797183,	18,	,	,	,	,	,	,	,	,	,	,	,	,	,
4613.76,	0.9119,	-0.0027222,	18,	,	,	,	,	,	,	,	,	,	,	,	,	,
4623.36,	0.720024,	-0.0275854,	18,	,	,	,	,	,	,	,	,	,	,	,	,	,
4632.95,	0.528119,	-0.00129494,	18,	,	,	,	,	,	,	,	,	,	,	,	,	,
4642.55,	0.336211,	-0.00266812,	18,	,	,	,	,	,	,	,	,	,	,	,	,	,
4652.14,	0.144253,	-0.00526339,	18,	,	,	,	,	,	,	,	,	,	,	,	,	,
4661.09,	0.0560309,	0.0115168,	18,	,	,	,	,	,	,	,	,	,	,	,	,	,
4670.69,	0.247874,	0.00341512,	18,	,	,	,	,	,	,	,	,	,	,	,	,	,
4680.28,	0.439648,	0.000232745,	18,	,	,	,	,	,	,	,	,	,	,	,	,	,
4689.88,	0.631543,	0.000371208,	18,	,	,	,	,	,	,	,	,	,	,	,	,	,
4699.47,	0.823416,	0.00263975,	18,	,	,	,	,	,	,	,	,	,	,	,	,	,
4709.07,	1.01535,	0.00415821,	19,	,	,	,	,	,	,	,	,	,	,	,	,	,
4718.66,	1.207266,	0.00431533,	19,	,	,	,	,	,	,	,	,	,	,	,	,	,
4728.26,	1.39917,	0.00464304,	19,	,	,	,	,	,	,	,	,	,	,	,	,	,
4737.85,	1.59108,	0.0170788,	19,	,	,	,	,	,	,	,	,	,	,	,	,	,
4747.08,	1.62556,	0.00786074,	19,	,	,	,	,	,	,	,	,	,	,	,	,	,
4756.67,	1.43358,	-0.000169374,	19,	,	,	,	,	,	,	,	,	,	,	,	,	,
4766.27,	1.24173,	-0.0004401,	19,	,	,	,	,	,	,	,	,	,	,	,	,	,
4775.86,	1.04981,	-0.0010762,	19,	,	,	,	,	,	,	,	,	,	,	,	,	,
4785.46,	0.857886,	-0.00448776,	19,	,	,	,	,	,	,	,	,	,	,	,	,	,
4795.05,	0.6660586,	-0.00758677,	19,	,	,	,	,	,	,	,	,	,	,	,	,	,
4804.65,	0.47415,	-0.00105103,	19,	,	,	,	,	,	,	,	,	,	,	,	,	,
4814.24,	0.282214,	-0.00382431,	19,	,	,	,	,	,	,	,	,	,	,	,	,	,
4823.84,	0.0903101,	-0.00676255,	19,	,	,	,	,	,	,	,	,	,	,	,	,	,
4832.79,	0.109982,	0.00667175,	19,	,	,	,	,	,	,	,	,	,	,	,	,	,
4842.38,	0.301852,	0.00399085,	19,	,	,	,	,	,	,	,	,	,	,	,	,	,
4851.98,	0.493599,	0.000215726,	19,	,	,	,	,	,	,	,	,	,	,	,	,	,
4861.57,	0.685516,	0.000510014,	19,	,	,	,	,	,	,	,	,	,	,	,	,	,
4871.17,	0.877428,	0.00500128,	19,	,	,	,	,	,	,	,	,	,	,	,	,	,
4880.76,	1.06932,	0.00389795,	20,	,	,	,	,	,	,	,	,	,	,	,	,	,
4890.36,	1.261225,	0.00449389,	20,	,	,	,	,	,	,	,	,	,	,	,	,	,
4899.95,	1.45309,	0.00494982,	20,	,	,	,	,	,	,	,	,	,	,	,	,	,
4909.55,	1.64502,	0.0433931,	20,	,	,	,	,	,	,	,	,	,	,	,	,	,
4918.77,	1.571579,	0.00151445,	20,	,	,	,	,	,	,	,	,	,	,	,	,	,
4928.37,	1.37963,	-0.000249029,	20,	,	,	,	,	,	,	,	,	,	,	,	,	,
4937.96,	1.18776,	-0.000537756,	20,	,	,	,	,	,	,	,	,	,	,	,	,	,
4947.56,	0.995832,	-0.00149543,	20,	,	,	,	,	,	,	,	,	,	,	,	,	,
4957.15,	0.803916,	-0.00934896,	20,	,	,	,	,	,	,	,	,	,	,	,	,	,
4966.75,	0.612067,	-0.00263292,	20,	,	,	,	,	,	,	,	,	,	,	,	,	,
4976.34,	0.4201698,	-0.000932088,	20,	,	,	,	,	,	,	,	,	,	,	,	,	,
4985.94,	0.228232,	-0.00342472,	20,	,	,	,	,	,	,	,	,	,	,	,	,	,
4995.53,	0.0363256,	-0.0167144,	20,	,	,	,	,	,	,	,	,	,	,	,	,	,
5004.48,	0.163965,	0.00399017,	20,	,	,	,	,	,	,	,	,	,	,	,	,	,
5014.08,	0.355725,	0.00121642,	20,	,	,	,	,	,	,	,	,	,	,	,	,	,
5023.67,	0.547594,	0.000285718,	20,	,	,	,	,	,	,	,	,	,	,	,	,	,
5033.27,	0.739515,	0.000675198,	20,	,	,	,	,	,	,	,	,	,	,	,	,	,
5044.15,	0.881117,	2.25529e-06,	21,	,	,	,	,	,	,	,	,	,	,	,	,	,
5076.15,	0.880368,	2.41588e-06,	21,	,	,	,	,	,	,	,	,	,	,	,	,	,
5108.15,	0.888678,	2.31289e-06,	21,	,	,	,	,	,	,	,	,	,	,	,	,	,
5140.15,	0.897148,	2.34417e-06,	21,	,	,	,	,	,	,	,	,	,	,	,	,	,
5172.15,	0.904498,	2.45136e-06,	21,	,	,	,	,	,	,	,	,	,	,	,	,	,
5204.15,	0.910519,	2.44106e-06,	21,	,	,	,	,	,	,	,	,	,	,	,	,	,
5236.15,	0.915562,	2.26368e-06,	21,	,	,	,	,	,	,	,	,	,	,	,	,	,
5268.15,	0.919883,	2.39185e-06,	21,	,	,	,	,	,	,	,	,	,	,	,	,	,
5300.15,	0.923508,	2.1275e-06,	21,	,	,	,	,	,	,	,	,	,	,	,	,	,
5332.15,	0.926523,	2.17175e-06,	21,	,	,	,	,	,	,	,	,	,	,	,	,	,
5356.02,	1.137798,	0.00250324,	22,	,	,	,	,	,	,	,	,	,	,	,	,	,
5387.19,	1.45104,	0.00250336,	22,	,	,	,	,	,	,	,	,	,	,	,	,	,
5419.19,	1.54901,	0.00250351,	22,	,	,	,	,	,	,	,	,	,	,	,	,	,
5451.19,	1.56982,	0.0025034,	22,	,	,	,	,	,	,	,	,	,	,	,	,	,
5483.19,	1.58073,	0.00250298,	22,	,	,	,	,	,	,	,	,	,	,	,	,	,
5515.19,	1.58812,	0.00250344,	22,	,	,	,	,	,	,	,	,	,	,	,	,	,
5547.19,	1.59333,	0.00250347,	22,	,	,	,	,	,	,	,	,	,	,	,	,	,
5579.19,	1.59778,	0.00250336,	22,	,	,	,	,	,	,	,	,	,	,	,	,	,
5611.19,	1.60156,	0.00250351,	22,	,	,	,	,	,	,	,	,	,	,	,	,	,
5641.41,	1.60421,	4.20616e-05,	23,	,	,	,	,	,	,	,	,	,	,	,	,	,
5667.8,	1.45264,	2.33997e-06,	23,	,	,	,	,	,	,	,	,	,	,	,	,	,
5699.8,	1.423264,	2.29038e-06,	23,	,	,	,	,	,	,	,	,	,	,	,	,	,
5731.8,	1.40452,	2.19387e-06,	23,	,	,	,	,	,	,	,	,	,	,	,	,	,
5763.8,	1.39018,	2.255669e-06,	23,	,	,	,	,	,	,	,	,	,	,	,	,	,
5795.8,	1.37818,	2.28809e-06,	23,	,	,	,	,	,	,	,	,	,	,	,	,	,
5827.8,	1.3679,	2.35675e-06,	23,	,	,	,	,	,	,	,	,	,	,	,	,	,
5859.8,	1.3587,	2.30678e-06,	23,	,	,	,	,	,	,	,	,	,	,	,	,	,
5891.8,	1.35059,	2.25681e-06,	23,	,	,	,	,	,	,	,	,	,	,	,	,	,
5923.8,	1.34314,	2.09546e-06,	23,	,	,	,	,	,	,	,	,	,	,	,	,	,
5941.75,	1.46944,	0.00500341,	24,	,	,	,	,	,	,	,	,	,	,	,	,	,
5961.2,	1.62736,	0.00500376,	24,	,	,	,	,	,	,	,	,	,	,	,	,	,
5993.2,	1.63507,	0.00500364,	24,	,	,	,	,	,	,	,	,	,	,	,	,	,
6025.2,	1.63981,	0.00500379,	24,	,	,	,	,	,	,	,	,	,	,	,	,	,
6057.2,	1.64344,	0.00500349,	24,	,	,	,	,	,	,	,	,	,	,	,	,	,
6089.2,	1.64648,	0.00500414,	24,	,	,	,	,	,	,	,	,	,	,	,	,	,
6121.2,	1.64916,	0.00500326,	24,	,	,	,	,	,	,	,	,	,	,	,	,	,
6153.2,	1.65138,	0.0050033,	24,	,	,	,	,	,	,	,	,	,	,	,	,	,
6185.2,	1.6535,	0.00500345,	24,	,	,	,	,	,	,	,	,	,	,	,	,	,
6217.2,	1.65539,	0.00500334,	24,	,	,	,	,	,	,	,	,	,	,	,	,	,
6241.92,	1.59566,	2.1439e-06,	25,	,	,	,	,	,	,	,	,	,	,	,	,	,
6271.62,	1.47858,	2.23011e-06,	25,	,	,	,	,	,	,	,	,	,	,	,	,	,
6303.62,	1.45481,	2.25681e-06,	25,	,	,	,	,	,	,	,	,	,	,	,	,	,
6335.62,	1.44009,	2.34531e-06,	25,	,	,	,	,	,	,	,	,	,	,	,	,	,
6367.62,	1.42913,	2.54672e-06,	25,	,	,	,	,	,	,	,	,	,	,	,	,	,
6399.62,	1.41996,	2.225916e-06,	25,	,	,	,	,	,	,	,	,	,	,	,	,	,
6431.62,	1.41202,	2.13132e-06,	25,	,	,	,	,	,	,	,	,	,	,	,	,	,
6463.62,	1.40497,	2.21829e-06,	25,	,	,	,	,	,	,	,	,	,	,	,	,	,
6495.62,	1.3985,	2.22325e-06,	25,	,	,	,	,	,	,	,	,	,	,	,	,	,
6527.62,	1.39262,	2.18853e-06,	25,	,	,	,	,	,	,	,	,	,	,	,	,	,
6541.63,	1.56115,	0.0100038,	26,	,	,	,	,	,	,	,	,	,	,	,	,	,
6564.47,	1.67772,	0.0100036,	26,	,	,	,	,	,	,	,	,	,	,	,	,	,
6596.47,	1.68327,	0.0100036,	26,	,	,	,	,	,	,	,	,	,	,	,	,	,
6628.47,	1.68699,	0.0100041,	26,	,	,	,	,	,	,	,	,	,	,	,	,	,
6660.47,	1.68999,	0.0100037,	26,	,	,	,	,	,	,	,	,	,	,	,	,	,
6692.47,	1.69249,	0.0100038,	26,	,	,	,	,	,	,	,	,	,	,	,	,	,
6724.47,	1.69475,	0.0100037,	26,	,	,	,	,	,	,	,	,	,	,	,	,	,
6756.47,	1.69667,	0.0100037,	26,	,	,	,	,	,	,	,	,	,	,	,	,	,
6788.47,	1.69853,	0.0100039,	26,	,	,	,	,	,	,	,	,	,	,	,	,	,
6820.47,	1.70019,	0.010004,	26,	,	,	,	,	,	,	,	,	,	,	,	,	,
6842.43,	1.60002,	2.15573e-06,	27,	,	,	,	,	,	,	,	,	,	,	,	,	,
6873.18,	1.49398,	2.27779e-06,	27,	,	,	,	,	,	,	,	,	,	,	,	,	,
6905.18,	1.4713,	2.21981e-06,	27,	,	,	,	,	,	,	,	,	,	,	,	,	,
6937.18,	1.45728,	2.40558e-06,	27,	,	,	,	,	,	,	,	,	,	,	,	,	,
6969.18,	1.44684,	2.35866e-06,	27,	,	,	,	,	,	,	,	,	,	,	,	,	,
7001.18,	1.43841,	2.42618e-06,	27,	,	,	,	,	,	,	,	,	,	,	,	,	,
7033.18,	1.4313,	2.225534e-06,	27,	,	,	,	,	,	,	,	,	,	,	,	,	,
7065.18,	1.42458,	2.24842e-06,	27,	,	,	,	,	,	,	,	,	,	,	,	,	,
7097.18,	1.4186,	2.14581e-06,	27,	,	,	,	,	,	,	,	,	,	,	,	,	,
7129.18,	1.41341,	2.41817e-06,	27,	,	,	,	,	,	,	,	,	,	,	,	,	,
7141.57,	1.59237,	0.0150036,	28,	,	,	,	,	,	,	,	,	,	,	,	,	,
7164.17,	1.710909,	0.0150047,	28,	,	,	,	,	,	,	,	,	,	,	,	,	,
7196.17,	1.71584,	0.015004,	28,	,	,	,	,	,	,	,	,	,	,	,	,	,
7228.17,	1.71906,	0.0150045,	28,	,	,	,	,	,	,	,	,	,	,	,	,	,
7260.17,	1.72162,	0.0150042,	28,	,	,	,	,	,	,	,	,	,	,	,	,	,
7292.17,	1.72376,	0.0150042,	28,	,	,	,	,	,	,	,	,	,	,	,	,	,
7324.17,	1.72566,	0.0150047,	28,	,	,	,	,	,	,	,	,	,	,	,	,	,
7356.17,	1.7274,	0.0150045,	28,	,	,	,	,	,	,	,	,	,	,	,	,	,
7388.17,	1.728968,	0.01500435,	28,	,	,	,	,	,	,	,	,	,	,	,	,	,
7420.17,	1.73051,	0.0150046,	28,	,	,	,	,	,	,	,	,	,	,	,	,	,
7441.88,	1.64003,	2.20532e-06,	29,	,	,	,	,	,	,	,	,	,	,	,	,	,
7470.57,	1.50825,	2.07486e-06,	29,	,	,	,	,	,	,	,	,	,	,	,	,	,
7502.57,	1.483867,	2.12941e-06,	29,	,	,	,	,	,	,	,	,	,	,	,	,	,
7534.57,	1.46962,	2.31785e-06,	29,	,	,	,	,	,	,	,	,	,	,	,	,	,
7566.57,	1.45928,	2.20722e-06,	29,	,	,	,	,	,	,	,	,	,	,	,	,	,
7598.57,	1.45087,	2.24995e-06,	29,	,	,	,	,	,	,	,	,	,	,	,	,	,
7630.57,	1.44389,	2.23583e-06,	29,	,	,	,	,	,	,	,	,	,	,	,	,	,
7662.57,	1.437728,	2.321279e-06,	29,	,	,	,	,	,	,	,	,	,	,	,	,	,
7694.57,	1.432135,	2.10614e-06,	29,	,	,	,	,	,	,	,	,	,	,	,	,	,
7726.57,	1.42718,	2.34188e-06,	29,	,	,	,	,	,	,	,	,	,	,	,	,	,
7741.51,	1.58699,	0.0200042,	30,	,	,	,	,	,	,	,	,	,	,	,	,	,
7761.14,	1.735329,	0.0200043,	30,	,	,	,	,	,	,	,	,	,	,	,	,	,
7793.14,	1.74036,	0.0200049,	30,	,	,	,	,	,	,	,	,	,	,	,	,	,
7825.14,	1.74333,	0.0200038,	30,	,	,	,	,	,	,	,	,	,	,	,	,	,
7857.14,	1.74566,	0.0200041,	30,	,	,	,	,	,	,	,	,	,	,	,	,	,
7889.14,	1.74762,	0.020004,	30,	,	,	,	,	,	,	,	,	,	,	,	,	,
7921.14,	1.74937,	0.0200042,	30,	,	,	,	,	,	,	,	,	,	,	,	,	,
7953.14,	1.75091,	0.0200045,	30,	,	,	,	,	,	,	,	,	,	,	,	,	,
7985.14,	1.75233,	0.0200047,	30,	,	,	,	,	,	,	,	,	,	,	,	,	,
8017.14,	1.753686,	0.02000438,	30,	,	,	,	,	,	,	,	,	,	,	,	,	,
8041.54,	1.69341,	2.57032e-06,	31,	,	,	,	,	,	,	,	,	,	,	,	,	,
8066.35,	1.52251,	2.15344e-06,	31,	,	,	,	,	,	,	,	,	,	,	,	,	,
8098.35,	1.495393,	2.36591e-06,	31,	,	,	,	,	,	,	,	,	,	,	,	,	,
8130.35,	1.48043,	2.25452e-06,	31,	,	,	,	,	,	,	,	,	,	,	,	,	,
8162.35,	1.46994,	2.28352e-06,	31,	,	,	,	,	,	,	,	,	,	,	,	,	,
8194.35,	1.4617,	2.20989e-06,	31,	,	,	,	,	,	,	,	,	,	,	,	,	,
8226.35,	1.4548,	2.38231e-06,	31,	,	,	,	,	,	,	,	,	,	,	,	,	,
8258.35,	1.44882,	2.28809e-06,	31,	,	,	,	,	,	,	,	,	,	,	,	,	,
8290.35,	1.44336,	2.15191e-06,	31,	,	,	,	,	,	,	,	,	,	,	,	,	,
8322.35,	1.43859,	2.24766e-06,	31,	,	,	,	,	,	,	,	,	,	,	,	,	,
8341.41,	1.43605,	2.37812e-06,	31,	,	,	,	,	,	,	,	,	,	,	,	,	,