File: Quantification/development/chip crosscheck/OERonPt_RnD1_2019W4D2_noSEM_1-2.csv
ixdat version = 0.2.3
name = 2022-07-06 12_43_20 OER_chip crosscheck_SEM_off AND 2022-07-06 12_43_20 OER_chip crosscheck_SEM_off_01_01_CVA_DUSB0_C01.mpt AND 2022-07-06 12_43_20 OER_chip crosscheck_SEM_off_01_02_CP_DUSB0_C01.mpt
technique = EC-MS
tstamp = 1657104200.0
backend_name = BackendBase(none, address=none)
id = 95
timecol 'time/s' for: 'Ewe/V' and 'raw_current' and 'selector'
timecol 'C0M2 time [s]' for: 'M2'
timecol 'C6M44 time [s]' for: 'M44'
timecol 'C3M28 time [s]' for: 'M28'
timecol 'C1M4 time [s]' for: 'M4'
timecol 'C5M40 time [s]' for: 'M40'
timecol 'C4M32 time [s]' for: 'M32'
timecol 'C2M18 time [s]' for: 'M18'
aliases = {"M2": ["M2 [A]"], "M4": ["M4 [A]"], "M18": ["M18 [A]"], "M28": ["M28 [A]"], "M32": ["M32 [A]"], "M40": ["M40 [A]"], "M44": ["M44 [A]"], "t": ["time/s"], "raw_potential": ["Ewe/V"], "raw_current": ["<I>/mA", "I/mA"], "cycle": ["cycle number"]}
N_header_lines = 18

time/s,	Ewe/V,	raw_current,	selector,	C0M2 time [s],	M2,	C6M44 time [s],	M44,	C3M28 time [s],	M28,	C1M4 time [s],	M4,	C5M40 time [s],	M40,	C4M32 time [s],	M32,	C2M18 time [s],	M18
763.0,	0.858436,	-9.16579e-05,	0,	0.483222,	2.908068e-12,	0.930055,	3.828045e-14,	0.706139,	4.142325e-14,	0.557194,	2.105995e-17,	0.855083,	9.233947e-16,	0.781111,	2.645936e-13,	0.632166,	1.136798e-12
781.268,	1.02351,	0.00147826,	0,	55.7769,	8.262699e-12,	56.2238,	1.606985e-12,	56.0008,	8.006754e-10,	55.8519,	3.039919e-13,	56.1498,	1.336349e-11,	56.0748,	1.723134e-10,	55.9258,	1.141622e-10
792.662,	1.251389,	0.00599559,	0,	111.07,	7.045504e-12,	111.517,	1.573715e-12,	111.293,	7.747004e-10,	111.145,	3.443986e-13,	111.443,	1.330853e-11,	111.368,	1.717864e-10,	111.22,	6.62195e-11
804.056,	1.47927,	0.0100011,	0,	166.365,	6.409373e-12,	166.8125,	1.630034e-12,	166.589,	7.75538e-10,	166.44,	7.284708e-14,	166.737,	1.324716e-11,	166.664,	1.715841e-10,	166.514,	4.816448e-11
815.1,	1.70052,	0.157962,	0,	221.658,	6.012588e-12,	222.105,	1.520603e-12,	221.882,	7.713477e-10,	221.733,	8.096326e-14,	222.031,	1.318631e-11,	221.956,	1.710512e-10,	221.807,	3.920089e-11
826.067,	1.48108,	0.000271927,	0,	276.954,	5.749273e-12,	277.401,	1.467387e-12,	277.177,	7.775537e-10,	277.028,	8.489983e-14,	277.326,	1.312893e-11,	277.252,	1.712172e-10,	277.103,	3.359329e-11
837.461,	1.2532,	-0.000322351,	0,	332.246,	5.527072e-12,	332.693,	1.415543e-12,	332.47,	7.673275e-10,	332.321,	9.304435e-14,	332.619,	1.316045e-11,	332.544,	1.709826e-10,	332.395,	2.970791e-11
848.855,	1.02528,	-0.00120722,	0,	387.541,	5.39609e-12,	387.988,	1.475495e-12,	387.764,	7.671648e-10,	387.615,	9.32509e-14,	387.913,	1.315593e-11,	387.839,	1.703206e-10,	387.69,	2.715055e-11
860.249,	0.797368,	-0.00772034,	0,	442.835,	5.264292e-12,	443.282,	1.421715e-12,	443.058,	7.649513e-10,	442.909,	8.08296e-14,	443.207,	1.302217e-11,	443.133,	1.702278e-10,	442.984,	2.511858e-11
871.643,	0.569476,	-0.00388768,	0,	498.129,	5.310551e-12,	498.576,	1.380316e-12,	498.353,	7.560946e-10,	498.204,	5.936987e-12,	498.502,	1.27722e-11,	498.427,	1.673139e-10,	498.278,	2.629001e-11
883.036,	0.341606,	-0.00185489,	0,	553.423,	6.161141e-12,	553.87,	2.63349e-12,	553.646,	7.008483e-11,	553.497,	4.063905e-10,	553.795,	2.389212e-12,	553.721,	3.173711e-11,	553.572,	3.424907e-11
894.43,	0.113634,	-0.00778167,	0,	608.716,	6.628797e-12,	609.163,	1.448121e-12,	608.94,	1.634677e-11,	608.791,	4.691842e-10,	609.089,	3.651062e-13,	609.014,	7.652472e-12,	608.865,	3.805443e-11
905.453,	0.127304,	0.00549289,	0,	664.01,	6.600289e-12,	664.457,	1.878606e-12,	664.233,	1.93788e-11,	664.084,	4.615058e-10,	664.382,	6.146217e-13,	664.308,	1.02242e-11,	664.159,	3.801918e-11
916.846,	0.355082,	0.00095701,	0,	719.304,	6.494106e-12,	719.751,	1.099251e-12,	719.527,	5.692955e-12,	719.378,	4.677614e-10,	719.676,	1.887658e-13,	719.602,	5.367449e-12,	719.453,	3.660566e-11
928.24,	0.583003,	0.000287191,	0,	774.596,	6.642279e-12,	775.043,	8.799443e-13,	774.82,	4.685229e-12,	774.671,	4.70108e-10,	774.97,	1.45763e-13,	774.895,	4.882642e-12,	774.746,	3.611444e-11
939.634,	0.810858,	0.00148928,	0,	829.892,	6.603755e-12,	830.339,	9.314115e-13,	830.115,	4.250212e-12,	829.966,	4.604981e-10,	830.264,	1.371932e-13,	830.19,	9.35052e-12,	830.041,	3.557213e-11
950.579,	1.02978,	0.00496306,	1,	885.185,	6.90305e-12,	885.632,	8.185627e-13,	885.409,	3.937473e-12,	885.26,	4.663859e-10,	885.558,	1.40498e-13,	885.483,	4.45984e-12,	885.334,	3.521255e-11
961.973,	1.257681,	0.00654454,	1,	940.48,	7.020835e-12,	940.927,	7.822708e-13,	940.703,	3.731567e-12,	940.554,	4.655785e-10,	940.852,	1.339816e-13,	940.778,	4.312399e-12,	940.629,	3.468266e-11
973.367,	1.48555,	0.00766932,	1,	995.773,	6.802966e-12,	996.22,	8.875259e-13,	995.996,	3.577202e-12,	995.847,	4.578113e-10,	996.145,	1.062189e-13,	996.071,	7.538913e-12,	995.922,	3.424037e-11
984.111,	1.70015,	0.0975571,	1,	1051.07,	7.095857e-12,	1051.51,	7.749322e-13,	1051.29,	3.467508e-12,	1051.14,	4.636306e-10,	1051.44,	1.23241e-13,	1051.36,	4.161902e-12,	1051.21,	3.41715e-11
995.362,	1.47507,	0.000101423,	1,	1106.36,	7.1641e-12,	1106.81,	7.285599e-13,	1106.58,	3.416324e-12,	1106.43,	4.636783e-10,	1106.73,	1.258249e-13,	1106.66,	4.052318e-12,	1106.51,	3.35084e-11
1006.76,	1.24718,	-0.000354205,	1,	1161.65,	6.85588e-12,	1162.1,	8.278656e-13,	1161.88,	3.347993e-12,	1161.73,	4.537166e-10,	1162.03,	1.251121e-13,	1161.95,	8.335485e-12,	1161.8,	3.298233e-11
1018.15,	1.01927,	-0.00125115,	1,	1216.95,	7.21171e-12,	1217.4,	7.374536e-13,	1217.17,	3.287518e-12,	1217.02,	4.610888e-10,	1217.32,	1.194907e-13,	1217.25,	3.994889e-12,	1217.1,	3.309714e-11
1029.54,	0.791363,	-0.0105364,	1,	1272.24,	7.169887e-12,	1272.69,	6.912069e-13,	1272.47,	5.765595e-12,	1272.32,	4.554636e-10,	1272.62,	1.452041e-13,	1272.54,	4.297897e-12,	1272.39,	3.258383e-11
1040.94,	0.563476,	-0.00178382,	1,	1327.54,	6.942342e-12,	1327.98,	7.770504e-13,	1327.76,	3.349811e-12,	1327.61,	4.496249e-10,	1327.91,	1.212768e-13,	1327.84,	9.273515e-12,	1327.69,	3.263103e-11
1052.33,	0.335636,	-0.00168597,	1,	1382.83,	7.235388e-12,	1383.28,	7.074919e-13,	1383.05,	3.286409e-12,	1382.9,	4.596634e-10,	1383.2,	1.21378e-13,	1383.13,	3.909037e-12,	1382.98,	3.224198e-11
1063.73,	0.107643,	-0.0074754,	1,	1438.12,	7.29702e-12,	1438.57,	6.590622e-13,	1438.35,	3.250486e-12,	1438.2,	4.58858e-10,	1438.5,	1.136102e-13,	1438.42,	3.837701e-12,	1438.27,	3.204488e-11
1074.75,	0.133287,	0.00532978,	1,	1493.42,	7.067544e-12,	1493.87,	7.524184e-13,	1493.64,	3.226538e-12,	1493.49,	4.480412e-10,	1493.79,	1.037404e-13,	1493.72,	9.141687e-12,	1493.57,	3.172725e-11
1086.14,	0.361097,	0.000846826,	1,	1548.71,	7.291034e-12,	1549.16,	7.088365e-13,	1548.94,	3.160875e-12,	1548.79,	4.586281e-10,	1549.09,	1.093739e-13,	1549.01,	3.822724e-12,	1548.86,	3.167774e-11
1097.54,	0.588989,	0.00029047,	1,	1604.01,	7.390846e-12,	1604.45,	6.805716e-13,	1604.23,	3.13436e-12,	1604.08,	4.565362e-10,	1604.38,	1.113058e-13,	1604.3,	3.725772e-12,	1604.15,	3.143815e-11
1108.93,	0.816862,	0.00165886,	1,	1659.3,	7.419811e-12,	1659.75,	6.993312e-13,	1659.52,	3.142979e-12,	1659.37,	4.56214e-10,	1659.67,	1.206693e-13,	1659.6,	3.740838e-12,	1659.45,	3.107976e-11
1119.87,	1.03579,	0.00468832,	2,	1714.59,	7.389084e-12,	1715.04,	6.952366e-13,	1714.82,	3.081958e-12,	1714.67,	4.556488e-10,	1714.97,	1.168016e-13,	1714.89,	3.680918e-12,	1714.74,	3.069617e-11
1131.27,	1.26364,	0.00576605,	2,	1769.89,	7.356202e-12,	1770.34,	7.055114e-13,	1770.11,	5.714857e-12,	1769.96,	4.500428e-10,	1770.26,	1.706866e-13,	1770.19,	4.156391e-12,	1770.04,	3.0891e-11
1142.66,	1.49156,	0.00708264,	2,	1825.18,	7.434039e-12,	1825.63,	7.101568e-13,	1825.4,	2.977776e-12,	1825.26,	4.53892e-10,	1825.55,	1.083614e-13,	1825.48,	3.637259e-12,	1825.33,	3.095167e-11
1153.26,	1.69699,	0.0895558,	2,	1880.47,	7.474701e-12,	1880.92,	7.175116e-13,	1880.7,	2.962661e-12,	1880.55,	4.55017e-10,	1880.85,	1.039226e-13,	1880.77,	3.613591e-12,	1880.62,	3.088131e-11
1164.66,	1.46907,	4.66021e-05,	2,	1935.77,	7.489771e-12,	1936.22,	7.475503e-13,	1935.99,	2.917338e-12,	1935.84,	4.54413e-10,	1936.14,	9.634512e-14,	1936.07,	3.593216e-12,	1935.92,	3.065035e-11
1176.05,	1.24119,	-0.00038532,	2,	1991.06,	7.500358e-12,	1991.51,	7.738672e-13,	1991.29,	2.866802e-12,	1991.14,	4.543524e-10,	1991.44,	9.719561e-14,	1991.36,	3.688479e-12,	1991.21,	3.048917e-11
1187.45,	1.01331,	-0.00131691,	2,	2046.36,	7.458492e-12,	2046.8,	7.667189e-13,	2046.58,	2.858877e-12,	2046.43,	4.529184e-10,	2046.73,	1.065713e-13,	2046.65,	4.030002e-12,	2046.51,	3.040313e-11
1198.84,	0.78537,	-0.0123618,	2,	2101.65,	7.472595e-12,	2102.1,	7.50689e-13,	2101.87,	2.826404e-12,	2101.72,	4.518265e-10,	2102.02,	1.103702e-13,	2101.95,	4.073718e-12,	2101.8,	3.050261e-11
1210.23,	0.557483,	-0.00159064,	2,	2156.94,	7.460356e-12,	2157.39,	7.610166e-13,	2157.17,	2.749332e-12,	2157.02,	4.529494e-10,	2157.32,	1.043357e-13,	2157.24,	4.083997e-12,	2157.09,	3.038842e-11
1221.63,	0.32962,	-0.00212644,	2,	2212.24,	7.487284e-12,	2212.69,	7.733163e-13,	2212.46,	2.756885e-12,	2212.31,	4.521447e-10,	2212.61,	1.054252e-13,	2212.54,	4.099763e-12,	2212.39,	2.99589e-11
1233.02,	0.1016397,	-0.00745894,	2,	2267.53,	7.539205e-12,	2267.98,	7.682457e-13,	2267.76,	3.089583e-12,	2267.61,	4.526015e-10,	2267.9,	1.244925e-13,	2267.83,	3.560808e-12,	2267.68,	3.02449e-11
1244.04,	0.139284,	0.00504683,	2,	2322.83,	7.551894e-12,	2323.27,	7.550954e-13,	2323.05,	2.673509e-12,	2322.9,	4.530086e-10,	2323.2,	9.520707e-14,	2323.125,	3.478613e-12,	2322.98,	3.008084e-11
1255.44,	0.367092,	0.000734983,	2,	2378.12,	7.60362e-12,	2378.57,	7.674884e-13,	2378.34,	2.674367e-12,	2378.19,	4.521063e-10,	2378.49,	1.201064e-13,	2378.42,	3.465977e-12,	2378.27,	2.996055e-11
1266.83,	0.594987,	0.000294753,	2,	2433.41,	7.626677e-12,	2433.86,	7.712671e-13,	2433.64,	2.633369e-12,	2433.49,	4.528285e-10,	2433.79,	9.388273e-14,	2433.71,	3.435833e-12,	2433.56,	2.96005e-11
1278.23,	0.822838,	0.0019479,	2,	2488.71,	7.610894e-12,	2489.15,	7.767547e-13,	2488.93,	2.699558e-12,	2488.78,	4.507505e-10,	2489.08,	1.026104e-13,	2489.01,	3.409391e-12,	2488.86,	2.976331e-11
1289.17,	1.04176,	0.00453226,	3,	2544,	7.592337e-12,	2544.45,	7.61292e-13,	2544.22,	2.572137e-12,	2544.08,	4.501336e-10,	2544.37,	9.832556e-14,	2544.3,	4.214795e-12,	2544.15,	2.985965e-11
1300.56,	1.26966,	0.00547042,	3,	2599.3,	7.5149e-12,	2599.74,	7.882162e-13,	2599.52,	2.597912e-12,	2599.37,	4.490367e-10,	2599.67,	9.965396e-14,	2599.59,	4.585871e-12,	2599.44,	2.967019e-11
1311.96,	1.49756,	0.00697041,	3,	2654.59,	7.49276e-12,	2655.04,	7.884471e-13,	2654.81,	2.56605e-12,	2654.66,	4.502645e-10,	2654.96,	8.527246e-14,	2654.89,	4.592696e-12,	2654.74,	2.963959e-11
1322.56,	1.691,	0.0701688,	3,	2709.88,	7.505655e-12,	2710.33,	8.007752e-13,	2710.11,	2.563621e-12,	2709.96,	4.514118e-10,	2710.26,	9.94474e-14,	2710.18,	4.637569e-12,	2710.03,	2.970017e-11
1333.95,	1.46306,	7.70451e-06,	3,	2765.18,	7.479427e-12,	2765.62,	7.931613e-13,	2765.4,	2.567038e-12,	2765.25,	4.500163e-10,	2765.55,	1.01521e-13,	2765.47,	4.646123e-12,	2765.33,	2.976447e-11
1345.35,	1.23519,	-0.000397271,	3,	2820.47,	7.473689e-12,	2820.92,	8.14201e-13,	2820.69,	2.602415e-12,	2820.55,	4.502912e-10,	2820.84,	1.120955e-13,	2820.77,	4.640157e-12,	2820.62,	2.946787e-11
1356.74,	1.00729,	-0.00138047,	3,	2875.77,	7.61805e-12,	2876.21,	7.98086e-13,	2875.99,	2.511878e-12,	2875.84,	4.513001e-10,	2876.14,	1.022662e-13,	2876.06,	3.434675e-12,	2875.91,	2.930042e-11
1368.14,	0.77939,	-0.0142084,	3,	2931.06,	7.666642e-12,	2931.51,	7.757868e-13,	2931.28,	2.50722e-12,	2931.13,	4.520252e-10,	2931.43,	9.276493e-14,	2931.36,	3.379555e-12,	2931.21,	2.955256e-11
1379.53,	0.551491,	-0.00149263,	3,	2986.35,	7.6872e-12,	2986.8,	7.913388e-13,	2986.58,	2.512469e-12,	2986.43,	4.50724e-10,	2986.73,	8.926575e-14,	2986.65,	3.351415e-12,	2986.5,	2.939234e-11
1390.92,	0.323577,	-0.00256225,	3,	3041.65,	7.683404e-12,	3042.09,	7.927603e-13,	3041.87,	2.494434e-12,	3041.72,	4.507965e-10,	3042.02,	8.305711e-14,	3041.94,	3.331842e-12,	3041.8,	2.929803e-11
1402.32,	0.0956542,	-0.00729007,	3,	3096.94,	7.717268e-12,	3097.39,	7.968305e-13,	3097.16,	2.487586e-12,	3097.02,	4.505553e-10,	3097.31,	9.253813e-14,	3097.24,	3.311709e-12,	3097.09,	2.897107e-11
1413.34,	0.145274,	0.0047061,	3,	3152.23,	7.529797e-12,	3152.68,	8.31462e-13,	3152.46,	2.495358e-12,	3152.31,	4.464433e-10,	3152.61,	8.571391e-14,	3152.53,	5.501904e-12,	3152.38,	2.902384e-11
1424.73,	0.373079,	0.000623488,	3,	3207.53,	7.388193e-12,	3207.98,	8.237832e-13,	3207.75,	2.492248e-12,	3207.6,	4.462375e-10,	3207.9,	8.467711e-14,	3207.83,	5.835769e-12,	3207.68,	2.917348e-11
1436.13,	0.60098,	0.000306342,	3,	3262.82,	7.361557e-12,	3263.27,	8.227748e-13,	3263.05,	2.47418e-12,	3262.9,	4.469372e-10,	3263.19,	7.799869e-14,	3263.12,	5.924573e-12,	3262.97,	2.923824e-11
1447.52,	0.828869,	0.00230256,	3,	3318.12,	7.310191e-12,	3318.56,	8.449241e-13,	3318.34,	4.419084e-12,	3318.19,	4.446218e-10,	3318.49,	1.310899e-13,	3318.41,	6.24336e-12,	3318.27,	2.921783e-11
1458.47,	1.04776,	0.00447971,	4,	3373.41,	7.344672e-12,	3373.86,	8.219931e-13,	3373.63,	2.491251e-12,	3373.48,	4.483834e-10,	3373.78,	8.402102e-14,	3373.71,	5.94537e-12,	3373.56,	2.919586e-11
1469.86,	1.27566,	0.00534946,	4,	3428.7,	7.385476e-12,	3429.15,	8.246134e-13,	3428.93,	2.477801e-12,	3428.78,	4.51845e-10,	3429.08,	9.023774e-14,	3429,	4.924089e-12,	3428.85,	2.937873e-11
1481.25,	1.50359,	0.00706793,	4,	3484,	7.599222e-12,	3484.44,	8.375936e-13,	3484.22,	2.46896e-12,	3484.07,	4.52561e-10,	3484.37,	8.4264e-14,	3484.3,	3.469193e-12,	3484.15,	2.951527e-11
1491.86,	1.68499,	0.0555207,	4,	3539.29,	7.629589e-12,	3539.74,	8.412467e-13,	3539.52,	3.187144e-12,	3539.37,	4.506575e-10,	3539.66,	1.15619e-13,	3539.59,	3.570548e-12,	3539.44,	2.901395e-11
1503.25,	1.45706,	-1.71811e-05,	4,	3594.59,	7.709329e-12,	3595.03,	8.295544e-13,	3594.81,	2.422932e-12,	3594.66,	4.51813e-10,	3594.96,	9.167953e-14,	3594.88,	3.315953e-12,	3594.73,	2.893832e-11
1514.64,	1.22919,	-0.000411183,	4,	3649.88,	7.720248e-12,	3650.33,	8.077979e-13,	3650.1,	2.428602e-12,	3649.95,	4.506987e-10,	3650.25,	8.450295e-14,	3650.18,	3.307319e-12,	3650.03,	2.883016e-11
1526.04,	1.0013,	-0.0014422,	4,	3705.17,	7.737562e-12,	3705.62,	8.225844e-13,	3705.4,	2.43814e-12,	3705.25,	4.503905e-10,	3705.55,	8.947229e-14,	3705.47,	3.32763e-12,	3705.32,	2.900432e-11
1537.43,	0.773379,	-0.016146,	4,	3760.47,	7.36902e-12,	3760.91,	8.33009e-13,	3760.69,	2.488951e-12,	3760.54,	4.437593e-10,	3760.84,	8.643481e-14,	3760.77,	6.835396e-12,	3760.62,	2.898658e-11
1548.83,	0.5455,	-0.00141984,	4,	3815.76,	7.254783e-12,	3816.21,	8.566812e-13,	3815.98,	2.760336e-12,	3815.84,	4.450223e-10,	3816.13,	8.290726e-14,	3816.06,	7.238227e-12,	3815.91,	2.920424e-11
1560.22,	0.317586,	-0.00294213,	4,	3871.06,	7.223128e-12,	3871.5,	8.585766e-13,	3871.28,	2.433746e-12,	3871.13,	4.460939e-10,	3871.43,	9.348583e-14,	3871.35,	7.284413e-12,	3871.2,	2.93243e-11
1571.61,	0.0896538,	-0.00712895,	4,	3926.35,	7.16135e-12,	3926.8,	8.591031e-13,	3926.57,	2.443376e-12,	3926.42,	4.472907e-10,	3926.72,	7.337361e-14,	3926.65,	7.366084e-12,	3926.5,	2.932844e-11
1582.64,	0.151279,	0.00442925,	4,	3981.64,	7.175472e-12,	3982.09,	8.786686e-13,	3981.87,	2.505467e-12,	3981.72,	4.47401e-10,	3982.02,	9.760466e-14,	3981.94,	7.394478e-12,	3981.79,	2.94862e-11
1594.03,	0.379087,	0.000537178,	4,	4036.94,	7.31452e-12,	4037.38,	8.693252e-13,	4037.16,	2.556338e-12,	4037.01,	4.517811e-10,	4037.31,	7.458858e-14,	4037.23,	4.803254e-12,	4037.09,	2.946614e-11
1605.42,	0.606985,	0.000342461,	4,	4092.23,	7.529636e-12,	4092.68,	8.861205e-13,	4092.45,	2.539713e-12,	4092.31,	4.534275e-10,	4092.6,	8.483909e-14,	4092.53,	3.584253e-12,	4092.38,	2.922087e-11
1616.82,	0.834841,	0.00263342,	4,	4147.52,	7.612242e-12,	4147.97,	8.57807e-13,	4147.75,	2.467255e-12,	4147.6,	4.521364e-10,	4147.9,	8.623634e-14,	4147.82,	3.423845e-12,	4147.67,	2.904187e-11
1644.86,	0.878271,	2.14314e-06,	5,	4202.82,	7.659337e-12,	4203.27,	8.580663e-13,	4203.04,	2.456903e-12,	4202.89,	4.51281e-10,	4203.19,	9.174432e-14,	4203.12,	3.368684e-12,	4202.97,	2.88507e-11
1682.86,	0.894267,	2.05083e-06,	5,	4258.11,	7.712926e-12,	4258.56,	8.492211e-13,	4258.34,	2.438581e-12,	4258.19,	4.519984e-10,	4258.48,	8.837474e-14,	4258.41,	3.353068e-12,	4258.26,	2.884646e-11
1720.86,	0.9053576,	2.11262e-06,	5,	4313.41,	7.718388e-12,	4313.85,	8.40704e-13,	4313.63,	2.430161e-12,	4313.48,	4.518834e-10,	4313.78,	9.736976e-14,	4313.7,	3.328545e-12,	4313.56,	2.871909e-11
1758.86,	0.912502,	2.08401e-06,	5,	4368.7,	7.217831e-12,	4369.15,	8.908793e-13,	4368.92,	3.568859e-12,	4368.78,	4.413409e-10,	4369.07,	1.120672e-13,	4369,	8.394043e-12,	4368.85,	2.906471e-11
1796.86,	0.917812,	2.22439e-06,	5,	4423.99,	7.10913e-12,	4424.44,	9.054753e-13,	4424.22,	2.390054e-12,	4424.07,	4.436867e-10,	4424.37,	8.776725e-14,	4424.29,	8.595295e-12,	4424.14,	2.930592e-11
1834.86,	0.9183355,	2.1214e-06,	5,	4479.29,	7.051668e-12,	4479.73,	8.89146e-13,	4479.51,	2.77571e-12,	4479.36,	4.45836e-10,	4479.66,	9.557562e-14,	4479.59,	8.809815e-12,	4479.44,	2.938796e-11
1872.86,	0.917552,	2.13398e-06,	5,	4534.58,	7.018284e-12,	4535.03,	8.963427e-13,	4534.81,	2.437135e-12,	4534.66,	4.466954e-10,	4534.95,	9.483447e-14,	4534.88,	8.773369e-12,	4534.73,	2.942723e-11
1910.86,	0.915207,	1.92113e-06,	5,	4589.88,	6.992632e-12,	4590.32,	8.884128e-13,	4590.1,	2.448095e-12,	4589.95,	4.465417e-10,	4590.25,	9.160259e-14,	4590.17,	8.893176e-12,	4590.03,	2.950733e-11
1940.62,	1.17584,	0.00250305,	6,	4645.17,	7.236238e-12,	4645.62,	8.961645e-13,	4645.39,	3.185475e-12,	4645.24,	4.542924e-10,	4645.54,	1.026266e-13,	4645.47,	4.925171e-12,	4645.32,	2.950887e-11
1978.62,	1.45983,	0.00250351,	6,	4700.46,	7.475738e-12,	4700.91,	8.661622e-13,	4700.69,	2.366665e-12,	4700.54,	4.549668e-10,	4700.84,	9.588746e-14,	4700.76,	3.627215e-12,	4700.61,	2.924523e-11
2016.62,	1.55163,	0.0025026,	6,	4755.76,	7.594548e-12,	4756.2,	8.451995e-13,	4755.98,	2.388665e-12,	4755.83,	4.541279e-10,	4756.13,	8.47095e-14,	4756.06,	3.476459e-12,	4755.91,	2.894737e-11
2054.62,	1.57327,	0.00250336,	6,	4811.05,	7.631091e-12,	4811.5,	8.452278e-13,	4811.27,	2.388839e-12,	4811.125,	4.535627e-10,	4811.42,	7.409449e-14,	4811.35,	3.395682e-12,	4811.2,	2.889957e-11
2092.62,	1.58454,	0.00250286,	6,	4866.35,	7.686515e-12,	4866.79,	8.554055e-13,	4866.57,	2.360542e-12,	4866.42,	4.528192e-10,	4866.72,	9.357088e-14,	4866.64,	3.372472e-12,	4866.49,	2.882561e-11
2130.62,	1.592054,	0.00250317,	6,	4921.64,	7.736606e-12,	4922.09,	8.709412e-13,	4921.86,	2.323946e-12,	4921.71,	4.525019e-10,	4922.01,	8.50335e-14,	4921.94,	3.347345e-12,	4921.79,	2.871315e-11
2168.62,	1.59775,	0.00250328,	6,	4976.93,	7.691002e-12,	4977.38,	8.486016e-13,	4977.16,	2.342754e-12,	4977.01,	4.504521e-10,	4977.31,	7.615595e-14,	4977.23,	4.258803e-12,	4977.08,	2.872666e-11
2206.62,	1.60216,	0.002503626,	6,	5032.23,	7.787465e-12,	5032.67,	8.918309e-13,	5032.45,	3.994184e-12,	5032.3,	4.514831e-10,	5032.6,	1.226255e-13,	5032.52,	3.536812e-12,	5032.375,	2.867412e-11
2236.7,	1.43363,	2.066849e-06,	7,	5087.52,	7.843428e-12,	5087.97,	8.586455e-13,	5087.74,	2.604545e-12,	5087.59,	4.510235e-10,	5087.89,	8.61999e-14,	5087.82,	3.295133e-12,	5087.67,	2.846838e-11
2274.7,	1.31776,	2.05083e-06,	7,	5142.81,	7.617273e-12,	5143.26,	9.475305e-13,	5143.04,	8.098492e-12,	5142.89,	4.380757e-10,	5143.19,	2.18274e-13,	5143.11,	9.504484e-12,	5142.96,	2.895213e-11
2312.7,	1.22591,	2.16031e-06,	7,	5198.11,	7.761059e-12,	5198.56,	8.794381e-13,	5198.33,	2.303624e-12,	5198.18,	4.508489e-10,	5198.48,	7.888564e-14,	5198.41,	3.289503e-12,	5198.26,	2.852155e-11
2350.7,	1.154809,	2.07295e-06,	7,	5253.4,	7.812778e-12,	5253.85,	8.497032e-13,	5253.625,	2.320382e-12,	5253.48,	4.516862e-10,	5253.77,	7.489236e-14,	5253.7,	3.205012e-12,	5253.55,	2.854183e-11
2388.7,	1.099677,	2.23049e-06,	7,	5308.7,	7.708e-12,	5309.14,	8.871128e-13,	5308.92,	2.328178e-12,	5308.77,	4.45243e-10,	5309.07,	8.803455e-14,	5308.99,	5.892667e-12,	5308.85,	2.842141e-11
2426.7,	1.05688,	2.30106e-06,	7,	5363.99,	7.75377e-12,	5364.44,	8.699773e-13,	5364.21,	2.361117e-12,	5364.06,	4.520129e-10,	5364.36,	9.296338e-14,	5364.29,	3.317691e-12,	5364.14,	2.859761e-11
2464.7,	1.0231,	2.02565e-06,	7,	5419.28,	7.849184e-12,	5419.73,	8.492698e-13,	5419.51,	2.33171e-12,	5419.36,	4.513476e-10,	5419.66,	9.474133e-14,	5419.58,	3.205762e-12,	5419.43,	2.843001e-11
2502.7,	0.996362,	1.98407e-06,	7,	5474.58,	7.81938e-12,	5475.02,	8.796649e-13,	5474.8,	2.293369e-12,	5474.65,	4.497084e-10,	5474.95,	9.612237e-14,	5474.875,	3.96449e-12,	5474.73,	2.840736e-11
2521.11,	1.17589,	0.00500315,	8,	5529.87,	7.787421e-12,	5530.32,	8.521776e-13,	5530.1,	2.325513e-12,	5529.95,	4.512408e-10,	5530.24,	9.097485e-14,	5530.17,	3.345413e-12,	5530.02,	2.854073e-11
2524.8,	1.55688,	0.00500368,	8,	5585.16,	7.87567e-12,	5585.61,	8.441343e-13,	5585.39,	2.299715e-12,	5585.24,	4.504802e-10,	5585.54,	8.827756e-14,	5585.46,	3.190469e-12,	5585.31,	2.845249e-11
2561.99,	1.62366,	0.00500307,	8,	5640.46,	7.861163e-12,	5640.91,	8.622054e-13,	5640.68,	2.350915e-12,	5640.53,	4.503381e-10,	5640.83,	8.763766e-14,	5640.76,	3.389769e-12,	5640.61,	2.832593e-11
2599.99,	1.63393,	0.005003565,	8,	5695.75,	7.769633e-12,	5696.2,	8.629182e-13,	5695.98,	3.781257e-12,	5695.83,	4.502138e-10,	5696.125,	1.077742e-13,	5696.05,	3.764846e-12,	5695.9,	2.842586e-11
2637.99,	1.6348,	0.005003145,	8,	5751.05,	7.892464e-12,	5751.49,	8.377962e-13,	5751.27,	2.300391e-12,	5751.12,	4.502294e-10,	5751.42,	9.386248e-14,	5751.35,	3.194499e-12,	5751.2,	2.82687e-11
2675.99,	1.64475,	0.00500398,	8,	5806.34,	7.885516e-12,	5806.79,	8.434661e-13,	5806.56,	2.300278e-12,	5806.41,	4.497187e-10,	5806.71,	6.654937e-14,	5806.64,	3.181976e-12,	5806.49,	2.832416e-11
2713.99,	1.64849,	0.00500318,	8,	5861.63,	7.899233e-12,	5862.08,	8.420204e-13,	5861.86,	2.335785e-12,	5861.71,	4.493366e-10,	5862.01,	8.399267e-14,	5861.93,	3.173192e-12,	5861.78,	2.822042e-11
2751.99,	1.65157,	0.00500368,	8,	5916.93,	7.888188e-12,	5917.38,	8.399507e-13,	5917.15,	2.300699e-12,	5917,	4.50291e-10,	5917.3,	8.268452e-14,	5917.23,	3.157644e-12,	5917.08,	2.818869e-11
2789.99,	1.65438,	0.00500299,	8,	5972.22,	7.901306e-12,	5972.67,	8.08454e-13,	5972.45,	2.274435e-12,	5972.3,	4.489801e-10,	5972.6,	7.864668e-14,	5972.52,	3.148617e-12,	5972.37,	2.815356e-11
2820.65,	1.59536,	2.11186e-06,	9,	6027.52,	7.947435e-12,	6027.96,	8.208227e-13,	6027.74,	2.305742e-12,	6027.59,	4.494235e-10,	6027.89,	9.995771e-14,	6027.81,	3.179129e-12,	6027.66,	2.809841e-11
2855.88,	1.43596,	2.26406e-06,	9,	6082.81,	7.944471e-12,	6083.26,	8.256503e-13,	6083.03,	2.300218e-12,	6082.88,	4.485691e-10,	6083.18,	8.800216e-14,	6083.11,	3.15909e-12,	6082.96,	2.808804e-11
2893.88,	1.35481,	2.039e-06,	9,	6138.1,	7.924829e-12,	6138.55,	8.477713e-13,	6138.33,	2.290878e-12,	6138.18,	4.487869e-10,	6138.48,	6.430974e-14,	6138.4,	3.368531e-12,	6138.25,	2.803762e-11
2931.88,	1.28137,	2.16908e-06,	9,	6193.4,	7.820336e-12,	6193.85,	8.269988e-13,	6193.62,	3.910982e-12,	6193.47,	4.450222e-10,	6193.77,	1.113503e-13,	6193.7,	3.894393e-12,	6193.55,	2.815217e-11
2969.88,	1.2184,	2.26406e-06,	9,	6248.69,	7.882218e-12,	6249.14,	8.343859e-13,	6248.91,	2.261601e-12,	6248.77,	4.480442e-10,	6249.06,	7.541884e-14,	6248.99,	3.714201e-12,	6248.84,	2.821885e-11
3007.88,	1.16607,	2.30717e-06,	9,	6303.99,	7.850957e-12,	6304.43,	8.313121e-13,	6304.21,	2.287849e-12,	6304.06,	4.488773e-10,	6304.36,	8.362006e-14,	6304.28,	3.752097e-12,	6304.13,	2.824642e-11
3045.88,	1.12269,	2.28466e-06,	9,	6359.28,	7.843922e-12,	6359.73,	8.357468e-13,	6359.5,	2.321103e-12,	6359.35,	4.476627e-10,	6359.65,	9.759656e-14,	6359.58,	3.750829e-12,	6359.43,	2.819042e-11
3083.88,	1.08681,	2.16221e-06,	9,	6414.57,	7.884924e-12,	6415.02,	8.258487e-13,	6414.8,	2.336056e-12,	6414.65,	4.501105e-10,	6414.95,	8.193121e-14,	6414.87,	3.262773e-12,	6414.72,	2.818594e-11
3120.18,	1.058018,	0.000242913,	10,	6469.87,	7.935732e-12,	6470.31,	8.360749e-13,	6470.09,	2.247981e-12,	6469.94,	4.492682e-10,	6470.24,	6.918591e-14,	6470.16,	3.162775e-12,	6470.02,	2.808361e-11
3120.9,	1.44023,	0.0100036,	10,	6525.16,	7.957479e-12,	6525.61,	8.264764e-13,	6525.38,	2.228921e-12,	6525.24,	4.488439e-10,	6525.53,	8.092278e-14,	6525.46,	3.137706e-12,	6525.31,	2.801025e-11
3140.63,	1.66827,	0.0100039,	10,	6580.45,	7.967103e-12,	6580.9,	8.169833e-13,	6580.68,	2.24807e-12,	6580.53,	4.488594e-10,	6580.83,	8.963834e-14,	6580.75,	3.140573e-12,	6580.6,	2.797286e-11
3178.63,	1.6797,	0.0100039,	10,	6635.75,	7.98717e-12,	6636.2,	8.170279e-13,	6635.97,	2.260119e-12,	6635.82,	4.486105e-10,	6636.12,	8.313811e-14,	6636.05,	3.145284e-12,	6635.9,	2.790606e-11
3216.63,	1.68569,	0.0100037,	10,	6691.04,	7.931665e-12,	6691.49,	8.256259e-13,	6691.27,	2.22867e-12,	6691.12,	4.469616e-10,	6691.41,	7.592509e-14,	6691.34,	3.796517e-12,	6691.19,	2.807161e-11
3254.63,	1.69,	0.0100033,	10,	6746.34,	7.816617e-12,	6746.78,	8.252736e-13,	6746.56,	2.218209e-12,	6746.41,	4.463174e-10,	6746.71,	8.64915e-14,	6746.63,	4.256259e-12,	6746.49,	2.811506e-11
3292.63,	1.69347,	0.0100038,	10,	6801.63,	7.771805e-12,	6802.08,	8.295949e-13,	6801.86,	2.370776e-12,	6801.71,	4.466046e-10,	6802,	6.829491e-14,	6801.93,	4.411596e-12,	6801.78,	2.813235e-11
3330.63,	1.6963,	0.0100034,	10,	6856.92,	7.776189e-12,	6857.37,	8.384198e-13,	6857.15,	2.298197e-12,	6857,	4.469561e-10,	6857.3,	9.124618e-14,	6857.22,	4.377378e-12,	6857.07,	2.811392e-11
3368.63,	1.69874,	0.0100036,	10,	6912.22,	7.71265e-12,	6912.67,	8.372655e-13,	6912.44,	2.538988e-12,	6912.29,	4.473328e-10,	6912.59,	7.5512e-14,	6912.52,	4.494321e-12,	6912.37,	2.816278e-11
3406.63,	1.70101,	0.0100031,	10,	6967.51,	7.759439e-12,	6967.96,	8.334951e-13,	6967.73,	2.239844e-12,	6967.59,	4.492922e-10,	6967.88,	7.564565e-14,	6967.81,	4.407769e-12,	6967.66,	2.822368e-11
3432.59,	1.51766,	2.19654e-06,	11,	7022.81,	7.867683e-12,	7023.25,	8.204663e-13,	7023.03,	2.24564e-12,	7022.88,	4.50259e-10,	7023.18,	8.673856e-14,	7023.1,	3.258525e-12,	7022.95,	2.813623e-11
3470.59,	1.44667,	2.1378e-06,	11,	7078.1,	7.931434e-12,	7078.55,	8.04643e-13,	7078.32,	2.248787e-12,	7078.17,	4.497228e-10,	7078.47,	9.272039e-14,	7078.4,	3.192757e-12,	7078.25,	2.807574e-11
3508.59,	1.38761,	2.02298e-06,	11,	7133.39,	7.928692e-12,	7133.84,	8.145208e-13,	7133.62,	2.24564e-12,	7133.47,	4.483297e-10,	7133.77,	7.886539e-14,	7133.69,	3.174949e-12,	7133.54,	2.790881e-11
3546.59,	1.3324,	2.25529e-06,	11,	7188.69,	7.952094e-12,	7189.13,	8.149177e-13,	7188.91,	2.279975e-12,	7188.76,	4.491037e-10,	7189.06,	7.56011e-14,	7188.99,	3.189165e-12,	7188.84,	2.791194e-11
3584.59,	1.28193,	2.06914e-06,	11,	7243.98,	7.97117e-12,	7244.43,	8.027922e-13,	7244.21,	2.223187e-12,	7244.06,	4.48047e-10,	7244.36,	7.977259e-14,	7244.28,	3.141853e-12,	7244.13,	2.795126e-11
3622.59,	1.23702,	2.22935e-06,	11,	7299.28,	7.798279e-12,	7299.72,	8.132371e-13,	7299.5,	2.278716e-12,	7299.35,	4.446649e-10,	7299.65,	8.95047e-14,	7299.57,	5.025529e-12,	7299.42,	2.804056e-11
3660.59,	1.19765,	2.221338e-06,	11,	7354.57,	7.652942e-12,	7355.02,	8.361519e-13,	7354.79,	2.287229e-12,	7354.64,	4.44679e-10,	7354.94,	6.221589e-14,	7354.87,	5.630719e-12,	7354.72,	2.827692e-11
3698.59,	1.16353,	2.11835e-06,	11,	7409.86,	7.575449e-12,	7410.31,	8.368079e-13,	7410.09,	2.37287e-12,	7409.94,	4.451797e-10,	7410.24,	8.500111e-14,	7410.16,	5.715226e-12,	7410.01,	2.834018e-11
3720.31,	1.29738,	0.0150037,	12,	7465.16,	7.565822e-12,	7465.6,	8.332399e-13,	7465.38,	2.252598e-12,	7465.23,	4.466843e-10,	7465.53,	8.208107e-14,	7465.45,	5.748382e-12,	7465.31,	2.844623e-11
3721.54,	1.68013,	0.0150042,	12,	7520.45,	7.529781e-12,	7520.9,	8.320614e-13,	7520.67,	2.251857e-12,	7520.53,	4.467616e-10,	7520.82,	8.095113e-14,	7520.75,	5.788141e-12,	7520.6,	2.846104e-11
3759.54,	1.71045,	0.015004,	12,	7575.74,	7.501079e-12,	7576.19,	8.304778e-13,	7575.97,	2.259863e-12,	7575.82,	4.471961e-10,	7576.12,	7.445899e-14,	7576.04,	5.810518e-12,	7575.89,	2.858122e-11
3797.54,	1.71654,	0.015004,	12,	7631.04,	7.751708e-12,	7631.49,	8.075388e-13,	7631.26,	2.288278e-12,	7631.11,	4.506323e-10,	7631.41,	9.898571e-14,	7631.34,	3.380608e-12,	7631.19,	2.820789e-11
3835.54,	1.72057,	0.0150044,	12,	7686.33,	7.835507e-12,	7686.78,	8.277522e-13,	7686.56,	2.236612e-12,	7686.41,	4.509962e-10,	7686.71,	8.540611e-14,	7686.63,	3.26168e-12,	7686.48,	2.809843e-11
3873.54,	1.72371,	0.015004,	12,	7741.63,	7.847134e-12,	7742.07,	8.088103e-13,	7741.85,	2.863465e-12,	7741.7,	4.474318e-10,	7742,	9.048884e-14,	7741.92,	3.308785e-12,	7741.78,	2.800106e-11
3911.54,	1.72634,	0.0150039,	12,	7796.92,	7.927266e-12,	7797.37,	8.150879e-13,	7797.14,	2.227706e-12,	7796.99,	4.499719e-10,	7797.29,	1.008649e-13,	7797.22,	3.1836e-12,	7797.07,	2.801115e-11
3949.54,	1.72855,	0.0150041,	12,	7852.21,	7.930628e-12,	7852.66,	7.884795e-13,	7852.44,	2.248677e-12,	7852.29,	4.484113e-10,	7852.59,	8.912805e-14,	7852.51,	3.209917e-12,	7852.36,	2.800054e-11
3987.54,	1.73056,	0.0150042,	12,	7907.51,	7.616985e-12,	7907.96,	8.113092e-13,	7907.73,	2.294268e-12,	7907.58,	4.420022e-10,	7907.88,	8.704231e-14,	7907.81,	6.423292e-12,	7907.66,	2.808714e-11
4020.25,	1.69144,	3.45835e-06,	13,	7962.8,	7.468832e-12,	7963.25,	8.212844e-13,	7963.03,	2.270223e-12,	7962.88,	4.444099e-10,	7963.17,	9.303223e-14,	7963.1,	6.965905e-12,	7962.95,	2.843467e-11
4050.1,	1.49889,	1.852472e-06,	13,	8018.1,	7.375526e-12,	8018.54,	8.355444e-13,	8018.32,	2.263553e-12,	8018.17,	4.44326e-10,	8018.47,	8.145332e-14,	8018.39,	7.068439e-12,	8018.24,	2.855313e-11
4088.1,	1.44969,	2.03443e-06,	13,	8073.39,	7.354875e-12,	8073.84,	8.381565e-13,	8073.61,	2.277084e-12,	8073.46,	4.464719e-10,	8073.76,	1.027441e-13,	8073.69,	7.160799e-12,	8073.54,	2.860198e-11
4124.62,	1.39697,	1.90626e-06,	13,	8128.68,	7.303269e-12,	8129.13,	8.504766e-13,	8128.91,	2.309702e-12,	8128.76,	4.46767e-10,	8129.06,	9.371262e-14,	8128.98,	7.230046e-12,	8128.83,	2.879371e-11
4162.62,	1.36016,	1.95813e-06,	13,	8183.98,	7.372432e-12,	8184.42,	8.328713e-13,	8184.2,	2.32717e-12,	8184.05,	4.493347e-10,	8184.35,	8.720429e-14,	8184.28,	5.827491e-12,	8184.13,	2.875249e-11
4200.62,	1.32469,	2.11491e-06,	13,	8239.27,	7.665374e-12,	8239.72,	8.076156e-13,	8239.49,	2.224057e-12,	8239.35,	4.524317e-10,	8239.64,	7.473034e-14,	8239.57,	3.505505e-12,	8239.42,	2.857352e-11
4238.62,	1.29168,	1.93792e-06,	13,	8294.57,	7.736026e-12,	8295.01,	8.095475e-13,	8294.79,	2.235563e-12,	8294.64,	4.508916e-10,	8294.94,	7.944857e-14,	8294.86,	3.336916e-12,	8294.71,	2.838941e-11
4276.62,	1.26132,	2.022219e-06,	13,	8349.86,	7.806047e-12,	8350.31,	7.990702e-13,	8350.08,	2.210976e-12,	8349.93,	4.515103e-10,	8350.23,	7.914481e-14,	8350.16,	3.289276e-12,	8350.01,	2.826549e-11
4314.62,	1.233765,	2.12254e-06,	13,	8405.15,	7.84144e-12,	8405.6,	7.890707e-13,	8405.38,	2.242999e-12,	8405.23,	4.49218e-10,	8405.53,	8.641454e-14,	8405.45,	3.269751e-12,	8405.3,	2.807633e-11
4320.38,	1.54344,	0.0200033,	14,	8460.45,	7.862122e-12,	8460.89,	7.884672e-13,	8460.67,	2.214159e-12,	8460.52,	4.492709e-10,	8460.82,	6.896317e-14,	8460.75,	3.18946e-12,	8460.6,	2.810591e-11
4342.63,	1.73301,	0.0200038,	14,	8515.74,	7.4162e-12,	8516.19,	8.074171e-13,	8515.96,	2.249341e-12,	8515.82,	4.416483e-10,	8516.11,	7.130811e-14,	8516.04,	7.791844e-12,	8515.89,	2.836867e-11
4380.63,	1.73983,	0.0200042,	14,	8571.03,	7.260501e-12,	8571.48,	8.321708e-13,	8571.26,	2.25864e-12,	8571.11,	4.429707e-10,	8571.41,	8.551546e-14,	8571.33,	8.284078e-12,	8571.18,	2.863734e-11
4418.63,	1.74369,	0.02000396,	14,	8626.33,	7.2008e-12,	8626.78,	8.464225e-13,	8626.55,	2.311675e-12,	8626.4,	4.438e-10,	8626.7,	8.35188e-14,	8626.63,	8.52001e-12,	8626.48,	2.882574e-11
4456.63,	1.74661,	0.0200036,	14,	8681.62,	7.144417e-12,	8682.07,	8.643964e-13,	8681.85,	2.323752e-12,	8681.7,	4.438784e-10,	8681.99,	9.352226e-14,	8681.92,	8.598702e-12,	8681.77,	2.88781e-11
4494.63,	1.74893,	0.020004,	14,	8736.92,	7.10595e-12,	8737.36,	8.375937e-13,	8737.14,	2.256919e-12,	8736.99,	4.452103e-10,	8737.29,	7.468983e-14,	8737.21,	8.666345e-12,	8737.07,	2.891086e-11
4532.63,	1.750962,	0.0200042,	14,	8792.21,	7.282253e-12,	8792.66,	8.278412e-13,	8792.43,	2.281122e-12,	8792.29,	4.518136e-10,	8792.58,	6.207007e-14,	8792.51,	5.362609e-12,	8792.36,	2.901559e-11
4570.63,	1.75278,	0.0200043,	14,	8847.5,	7.598012e-12,	8847.95,	8.124716e-13,	8847.73,	2.233028e-12,	8847.58,	4.536538e-10,	8847.88,	8.081746e-14,	8847.8,	3.58642e-12,	8847.65,	2.873056e-11
4608.63,	1.75443,	0.0200038,	14,	8902.8,	7.687678e-12,	8903.24,	8.01083e-13,	8903.02,	2.261686e-12,	8902.87,	4.529924e-10,	8903.17,	8.583944e-14,	8903.1,	3.440588e-12,	8902.95,	2.849787e-11
4631.96,	1.54578,	2.31174e-06,	15,	8958.09,	7.532259e-12,	8958.54,	8.061414e-13,	8958.31,	7.001776e-12,	8958.16,	4.417042e-10,	8958.46,	1.53057e-13,	8958.39,	4.451776e-12,	8958.24,	2.828011e-11
4669.96,	1.48908,	2.17022e-06,	15,	9013.39,	7.798351e-12,	9013.83,	7.907272e-13,	9013.61,	2.20367e-12,	9013.46,	4.505977e-10,	9013.76,	7.773543e-14,	9013.68,	3.285891e-12,	9013.54,	2.823913e-11
4707.96,	1.45438,	2.15268e-06,	15,	9068.68,	7.822239e-12,	9069.13,	7.628066e-13,	9068.9,	2.187219e-12,	9068.75,	4.491164e-10,	9069.05,	8.597309e-14,	9068.98,	3.247812e-12,	9068.83,	2.817104e-11
4745.96,	1.42461,	2.16565e-06,	15,	9123.97,	7.883025e-12,	9124.42,	7.861871e-13,	9124.2,	2.216334e-12,	9124.05,	4.496302e-10,	9124.35,	7.394058e-14,	9124.27,	3.363144e-12,	9124.12,	2.813172e-11
4783.96,	1.39696,	2.10652e-06,	15,	9179.27,	7.859138e-12,	9179.71,	7.75082e-13,	9179.49,	3.620456e-12,	9179.34,	4.482954e-10,	9179.64,	1.073206e-13,	9179.57,	3.488653e-12,	9179.42,	2.793423e-11
4821.96,	1.37134,	2.29e-06,	15,	9234.56,	7.941932e-12,	9235.01,	7.836478e-13,	9234.79,	2.229849e-12,	9234.64,	4.495654e-10,	9234.93,	6.919805e-14,	9234.86,	3.173593e-12,	9234.71,	2.805206e-11
4859.96,	1.3471,	2.06838e-06,	15,	9289.86,	7.918802e-12,	9290.3,	7.94279e-13,	9290.08,	2.211693e-12,	9289.93,	4.487624e-10,	9290.23,	6.87809e-14,	9290.15,	3.371916e-12,	9290.01,	2.806981e-11
4897.96,	1.32422,	2.01726e-06,	15,	9345.15,	7.842075e-12,	9345.6,	7.823033e-13,	9345.37,	2.221166e-12,	9345.22,	4.49533e-10,	9345.52,	9.231536e-14,	9345.45,	3.395872e-12,	9345.3,	2.815034e-11
4932.3,	0.919411,	0.000255019,	16,	9400.44,	7.957334e-12,	9400.89,	7.725955e-13,	9400.67,	2.233992e-12,	9400.52,	4.482736e-10,	9400.82,	8.218635e-14,	9400.74,	3.168453e-12,	9400.59,	2.799209e-11
4943.7,	1.14726,	0.000775724,	16,	9455.74,	7.925728e-12,	9456.18,	8.152336e-13,	9455.96,	2.254566e-12,	9455.81,	4.473504e-10,	9456.11,	8.474594e-14,	9456.04,	3.243086e-12,	9455.89,	2.786018e-11
4955.09,	1.37517,	0.000602466,	16,	9511.03,	7.841444e-12,	9511.48,	7.79533e-13,	9511.25,	2.197951e-12,	9511.11,	4.484421e-10,	9511.4,	7.933921e-14,	9511.33,	3.476434e-12,	9511.18,	2.81624e-11
4966.48,	1.60305,	0.00303507,	16,	9566.33,	7.982577e-12,	9566.77,	7.782046e-13,	9566.55,	2.197368e-12,	9566.4,	4.478398e-10,	9566.7,	6.910086e-14,	9566.62,	3.153683e-12,	9566.47,	2.79272e-11
4977.51,	1.57755,	0.000349306,	16,	9621.62,	7.974029e-12,	9622.07,	7.837492e-13,	9621.84,	2.242214e-12,	9621.69,	4.482591e-10,	9621.99,	7.829027e-14,	9621.92,	3.150561e-12,	9621.77,	2.785915e-11
4988.9,	1.34966,	-0.000212415,	16,	9676.91,	7.954455e-12,	9677.36,	7.783829e-13,	9677.14,	2.197676e-12,	9676.99,	4.475384e-10,	9677.29,	7.321564e-14,	9677.21,	3.168036e-12,	9677.06,	2.781488e-11
5000.29,	1.12171,	-0.000511342,	16,	9732.21,	7.960785e-12,	9732.65,	7.81716e-13,	9732.43,	2.168544e-12,	9732.28,	4.464811e-10,	9732.58,	7.701858e-14,	9732.5,	3.131971e-12,	9732.36,	2.785287e-11
5011.69,	0.893873,	-0.0020396,	16,	9787.5,	7.997733e-12,	9787.95,	7.659494e-13,	9787.72,	2.17319e-12,	9787.57,	4.469022e-10,	9787.87,	7.797032e-14,	9787.8,	3.131951e-12,	9787.65,	2.780569e-11
5023.08,	0.665979,	-0.0461852,	16,	9842.8,	7.891056e-12,	9843.24,	7.888723e-13,	9843.02,	8.979125e-12,	9842.87,	4.379006e-10,	9843.17,	1.955819e-13,	9843.09,	4.231522e-12,	9842.94,	2.763175e-11
5034.48,	0.438118,	-0.00102921,	16,	9898.09,	8.038212e-12,	9898.54,	7.800717e-13,	9898.31,	2.212908e-12,	9898.16,	4.472294e-10,	9898.46,	9.144462e-14,	9898.39,	3.137779e-12,	9898.24,	2.780775e-11
5045.87,	0.210164,	-0.00383496,	16,	9953.38,	8.012912e-12,	9953.83,	7.726886e-13,	9953.61,	2.662461e-12,	9953.46,	4.451297e-10,	9953.75,	9.345747e-14,	9953.68,	3.178137e-12,	9953.53,	2.781231e-11
5056.62,	0.0260334,	0.0229416,	16,	10008.7,	8.058583e-12,	10009.1,	7.705866e-13,	10008.9,	2.215151e-12,	10008.75,	4.468932e-10,	10009,	8.555595e-14,	10009,	3.136944e-12,	10008.8,	2.773526e-11
5068.02,	0.253856,	0.00318423,	16,	10064,	8.038029e-12,	10064.4,	7.583273e-13,	10064.2,	2.160384e-12,	10064,	4.477187e-10,	10064.3,	7.170905e-14,	10064.3,	3.135118e-12,	10064.1,	2.777015e-11
5079.41,	0.481619,	5.99816e-05,	16,	10119.3,	8.044437e-12,	10119.7,	7.4429e-13,	10119.5,	2.174502e-12,	10119.3,	4.45962e-10,	10119.6,	6.590137e-14,	10119.6,	3.100377e-12,	10119.4,	2.768225e-11
5090.8,	0.709483,	0.00053296,	16,	10174.6,	8.068275e-12,	10175.0,	7.656821e-13,	10174.8,	2.205646e-12,	10174.6,	4.463027e-10,	10174.9,	7.527304e-14,	10174.9,	3.116196e-12,	10174.7,	2.77708e-11
5102.2,	0.93735,	0.00450833,	17,	10229.8,	8.052391e-12,	10230.3,	7.56197e-13,	10230.1,	2.199596e-12,	10229.9,	4.448742e-10,	10230.2,	8.030311e-14,	10230.2,	3.085068e-12,	10230.0,	2.768241e-11
5113.59,	1.16524,	0.0041603,	17,	10285.2,	8.070406e-12,	10285.6,	7.392033e-13,	10285.4,	2.179848e-12,	10285.2,	4.457374e-10,	10285.5,	8.38185e-14,	10285.4,	3.08591e-12,	10285.3,	2.774533e-11
5124.99,	1.39314,	0.00469868,	17,	10340.4,	8.048252e-12,	10340.9,	7.35291e-13,	10340.7,	2.191536e-12,	10340.5,	4.451367e-10,	10340.8,	9.001497e-14,	10340.7,	3.089677e-12,	10340.6,	2.764947e-11
5136.38,	1.62103,	0.0268814,	17,	10395.7,	8.067764e-12,	10396.2,	7.504785e-13,	10396,	2.205833e-12,	10395.8,	4.460602e-10,	10396.1,	8.116171e-14,	10396,	3.106258e-12,	10395.9,	2.763264e-11
5147.4,	1.55957,	0.00090236,	17,	10451,	8.084868e-12,	10451.5,	7.470076e-13,	10451.25,	2.22786e-12,	10451.1,	4.459048e-10,	10451.4,	8.347425e-14,	10451.3,	3.115002e-12,	10451.2,	2.765642e-11
5158.8,	1.33166,	-0.00030817,	17,	10506.3,	8.086266e-12,	10506.8,	7.422813e-13,	10506.5,	2.175571e-12,	10506.4,	4.456157e-10,	10506.7,	8.411009e-14,	10506.6,	3.102969e-12,	10506.5,	2.765654e-11
5170.19,	1.10381,	-0.000779389,	17,	10561.6,	8.091724e-12,	10562.1,	7.457157e-13,	10561.8,	2.171278e-12,	10561.7,	4.457339e-10,	10562,	1.008284e-13,	10561.9,	3.080613e-12,	10561.8,	2.770775e-11
5181.58,	0.875843,	-0.00369712,	17,	10616.9,	8.113193e-12,	10617.4,	7.461247e-13,	10617.1,	2.200572e-12,	10617,	4.443922e-10,	10617.3,	1.005247e-13,	10617.2,	3.117504e-12,	10617.1,	2.758468e-11
5192.98,	0.648022,	-0.00549681,	17,	10672.2,	8.105053e-12,	10672.7,	7.49956e-13,	10672.4,	2.160371e-12,	10672.3,	4.454978e-10,	10672.6,	8.647122e-14,	10672.5,	3.068329e-12,	10672.3,	2.768046e-11
5204.37,	0.420131,	-0.00107075,	17,	10727.5,	7.998404e-12,	10727.9,	7.749808e-13,	10727.7,	3.675661e-12,	10727.6,	4.413848e-10,	10727.9,	1.187537e-13,	10727.8,	3.354384e-12,	10727.7,	2.752262e-11
5215.77,	0.192194,	-0.00389072,	17,	10782.8,	8.114647e-12,	10783.2,	7.371621e-13,	10783,	2.182942e-12,	10782.9,	4.446715e-10,	10783.2,	8.948848e-14,	10783.1,	3.074393e-12,	10782.9,	2.765145e-11
5226.52,	0.0440257,	0.0158793,	17,	10838.1,	8.095202e-12,	10838.5,	7.415644e-13,	10838.3,	2.151267e-12,	10838.2,	4.448333e-10,	10838.5,	8.012086e-14,	10838.4,	3.07016e-12,	10838.2,	2.767993e-11
5237.91,	0.271849,	0.00319626,	17,	10893.4,	8.11321e-12,	10893.8,	7.384136e-13,	10893.6,	2.704373e-12,	10893.5,	4.447145e-10,	10893.75,	8.571794e-14,	10893.7,	3.168178e-12,	10893.5,	2.773893e-11
5249.31,	0.49961,	9.96043e-05,	17,	10948.7,	8.138133e-12,	10949.1,	1.248671e-12,	10948.9,	8.815211e-11,	10948.75,	4.275607e-10,	10949,	2.578962e-12,	10949,	2.464101e-11,	10948.8,	2.873874e-11
5260.7,	0.727487,	0.000557663,	17,	11004,	6.004257e-12,	11004.4,	1.09655e-12,	11004.2,	7.53737e-10,	11004,	9.866574e-14,	11004.3,	1.248773e-11,	11004.3,	1.528882e-10,	11004.1,	2.674387e-11
5272.09,	0.955346,	0.00435617,	18,	11059.3,	5.207588e-12,	11059.7,	1.022188e-12,	11059.5,	7.653083e-10,	11059.3,	9.216552e-14,	11059.6,	1.264837e-11,	11059.6,	1.604469e-10,	11059.4,	1.742038e-11
5283.49,	1.18325,	0.00417424,	18,	11114.5,	4.979943e-12,	11115.0,	1.014651e-12,	11114.8,	7.721198e-10,	11114.6,	7.923391e-14,	11114.9,	1.279995e-11,	11114.8,	1.637854e-10,	11114.7,	1.547969e-11
5294.88,	1.41114,	0.00464426,	18,	11169.8,	4.817741e-12,	11170.3,	1.002606e-12,	11170.1,	7.746637e-10,	11169.9,	9.053338e-14,	11170.2,	1.280383e-11,	11170.2,	1.650731e-10,	11170.0,	1.41805e-11
5306.28,	1.63903,	0.0372091,	18,	,	,	,	,	,	,	,	,	,	,	,	,	,
5317.3,	1.54156,	0.000472813,	18,	,	,	,	,	,	,	,	,	,	,	,	,	,
5328.69,	1.31366,	-0.000322805,	18,	,	,	,	,	,	,	,	,	,	,	,	,	,
5340.08,	1.08578,	-0.000861389,	18,	,	,	,	,	,	,	,	,	,	,	,	,	,
5351.48,	0.857861,	-0.00445509,	18,	,	,	,	,	,	,	,	,	,	,	,	,	,
5362.87,	0.630043,	-0.00388374,	18,	,	,	,	,	,	,	,	,	,	,	,	,	,
5374.27,	0.402184,	-0.00109581,	18,	,	,	,	,	,	,	,	,	,	,	,	,	,
5385.66,	0.1742321,	-0.00441304,	18,	,	,	,	,	,	,	,	,	,	,	,	,	,
5396.41,	0.0619776,	0.0112272,	18,	,	,	,	,	,	,	,	,	,	,	,	,	,
5407.81,	0.289848,	0.00342224,	18,	,	,	,	,	,	,	,	,	,	,	,	,	,
5419.2,	0.517569,	0.000140746,	18,	,	,	,	,	,	,	,	,	,	,	,	,	,
5430.59,	0.745464,	0.000608782,	18,	,	,	,	,	,	,	,	,	,	,	,	,	,
5441.99,	0.973337,	0.00425638,	19,	,	,	,	,	,	,	,	,	,	,	,	,	,
5453.38,	1.20125,	0.00423487,	19,	,	,	,	,	,	,	,	,	,	,	,	,	,
5464.78,	1.42909,	0.00469264,	19,	,	,	,	,	,	,	,	,	,	,	,	,	,
5476.17,	1.65697,	0.052219,	19,	,	,	,	,	,	,	,	,	,	,	,	,	,
5487.19,	1.52354,	0.000215803,	19,	,	,	,	,	,	,	,	,	,	,	,	,	,
5498.59,	1.29567,	-0.000338812,	19,	,	,	,	,	,	,	,	,	,	,	,	,	,
5509.98,	1.0678,	-0.000956607,	19,	,	,	,	,	,	,	,	,	,	,	,	,	,
5521.37,	0.83989,	-0.00550515,	19,	,	,	,	,	,	,	,	,	,	,	,	,	,
5532.77,	0.612038,	-0.00296939,	19,	,	,	,	,	,	,	,	,	,	,	,	,	,
5544.16,	0.384176,	-0.00119387,	19,	,	,	,	,	,	,	,	,	,	,	,	,	,
5555.56,	0.156234,	-0.00496015,	19,	,	,	,	,	,	,	,	,	,	,	,	,	,
5566.31,	0.0799885,	0.00869153,	19,	,	,	,	,	,	,	,	,	,	,	,	,	,
5577.7,	0.307832,	0.00398711,	19,	,	,	,	,	,	,	,	,	,	,	,	,	,
5589.1,	0.535598,	0.000175606,	19,	,	,	,	,	,	,	,	,	,	,	,	,	,
5600.49,	0.763468,	0.000701633,	19,	,	,	,	,	,	,	,	,	,	,	,	,	,
5611.88,	0.9913401,	0.00416021,	20,	,	,	,	,	,	,	,	,	,	,	,	,	,
5623.28,	1.21926,	0.00429789,	20,	,	,	,	,	,	,	,	,	,	,	,	,	,
5634.67,	1.4471,	0.00482647,	20,	,	,	,	,	,	,	,	,	,	,	,	,	,
5646.07,	1.67498,	0.0741777,	20,	,	,	,	,	,	,	,	,	,	,	,	,	,
5657.09,	1.50556,	5.95084e-05,	20,	,	,	,	,	,	,	,	,	,	,	,	,	,
5668.48,	1.27768,	-0.000359964,	20,	,	,	,	,	,	,	,	,	,	,	,	,	,
5679.88,	1.04981,	-0.00106278,	20,	,	,	,	,	,	,	,	,	,	,	,	,	,
5691.27,	0.821881,	-0.00704717,	20,	,	,	,	,	,	,	,	,	,	,	,	,	,
5702.66,	0.594054,	-0.00238971,	20,	,	,	,	,	,	,	,	,	,	,	,	,	,
5714.06,	0.366219,	-0.00142714,	20,	,	,	,	,	,	,	,	,	,	,	,	,	,
5725.45,	0.13825,	-0.00561455,	20,	,	,	,	,	,	,	,	,	,	,	,	,	,
5736.2,	0.0979928,	0.00755854,	20,	,	,	,	,	,	,	,	,	,	,	,	,	,
5747.6,	0.32583,	0.00363145,	20,	,	,	,	,	,	,	,	,	,	,	,	,	,
5758.99,	0.553601,	0.000198883,	20,	,	,	,	,	,	,	,	,	,	,	,	,	,
5770.38,	0.781477,	0.00090373,	20,	,	,	,	,	,	,	,	,	,	,	,	,	,
5792.32,	0.8797648,	2.20875e-06,	21,	,	,	,	,	,	,	,	,	,	,	,	,	,
5830.32,	0.8948859,	1.99323e-06,	21,	,	,	,	,	,	,	,	,	,	,	,	,	,
5868.32,	0.908727,	2.03366e-06,	21,	,	,	,	,	,	,	,	,	,	,	,	,	,
5906.32,	0.920292,	2.06494e-06,	21,	,	,	,	,	,	,	,	,	,	,	,	,	,
5944.32,	0.928016,	2.0287e-06,	21,	,	,	,	,	,	,	,	,	,	,	,	,	,
5982.32,	0.933132,	1.97377e-06,	21,	,	,	,	,	,	,	,	,	,	,	,	,	,
6020.32,	0.93722,	2.03328e-06,	21,	,	,	,	,	,	,	,	,	,	,	,	,	,
6058.32,	0.940383,	2.00276e-06,	21,	,	,	,	,	,	,	,	,	,	,	,	,	,
6088.08,	1.121374,	0.00250317,	22,	,	,	,	,	,	,	,	,	,	,	,	,	,
6124.94,	1.48175,	0.002503321,	22,	,	,	,	,	,	,	,	,	,	,	,	,	,
6162.94,	1.559424,	0.00250366,	22,	,	,	,	,	,	,	,	,	,	,	,	,	,
6200.94,	1.57783,	0.00250332,	22,	,	,	,	,	,	,	,	,	,	,	,	,	,
6238.94,	1.58773,	0.00250309,	22,	,	,	,	,	,	,	,	,	,	,	,	,	,
6276.94,	1.59466,	0.0025034,	22,	,	,	,	,	,	,	,	,	,	,	,	,	,
6314.94,	1.6,	0.00250313,	22,	,	,	,	,	,	,	,	,	,	,	,	,	,
6352.94,	1.604241,	0.0025034,	22,	,	,	,	,	,	,	,	,	,	,	,	,	,
6383.72,	1.49285,	2.04663e-06,	23,	,	,	,	,	,	,	,	,	,	,	,	,	,
6421.72,	1.42265,	2.13894e-06,	23,	,	,	,	,	,	,	,	,	,	,	,	,	,
6459.72,	1.38482,	2.25643e-06,	23,	,	,	,	,	,	,	,	,	,	,	,	,	,
6497.72,	1.35313,	2.19082e-06,	23,	,	,	,	,	,	,	,	,	,	,	,	,	,
6535.72,	1.32723,	2.11682e-06,	23,	,	,	,	,	,	,	,	,	,	,	,	,	,
6573.72,	1.30474,	2.14276e-06,	23,	,	,	,	,	,	,	,	,	,	,	,	,	,
6611.72,	1.28128,	1.9959e-06,	23,	,	,	,	,	,	,	,	,	,	,	,	,	,
6649.72,	1.26408,	2.24613e-06,	23,	,	,	,	,	,	,	,	,	,	,	,	,	,
6676.69,	1.3521,	0.00500292,	24,	,	,	,	,	,	,	,	,	,	,	,	,	,
6691.36,	1.62503,	0.00500337,	24,	,	,	,	,	,	,	,	,	,	,	,	,	,
6729.36,	1.63609,	0.00500376,	24,	,	,	,	,	,	,	,	,	,	,	,	,	,
6767.36,	1.64192,	0.00500326,	24,	,	,	,	,	,	,	,	,	,	,	,	,	,
6805.36,	1.64618,	0.00500418,	24,	,	,	,	,	,	,	,	,	,	,	,	,	,
6843.36,	1.64952,	0.00500341,	24,	,	,	,	,	,	,	,	,	,	,	,	,	,
6881.36,	1.65243,	0.00500311,	24,	,	,	,	,	,	,	,	,	,	,	,	,	,
6919.36,	1.65496,	0.00500364,	24,	,	,	,	,	,	,	,	,	,	,	,	,	,
6957.36,	1.65724,	0.00500345,	24,	,	,	,	,	,	,	,	,	,	,	,	,	,
6985.51,	1.51547,	2.01955e-06,	25,	,	,	,	,	,	,	,	,	,	,	,	,	,
7023.51,	1.45821,	2.05541e-06,	25,	,	,	,	,	,	,	,	,	,	,	,	,	,
7061.51,	1.42986,	2.1584e-06,	25,	,	,	,	,	,	,	,	,	,	,	,	,	,
7099.51,	1.40782,	2.020312e-06,	25,	,	,	,	,	,	,	,	,	,	,	,	,	,
7137.51,	1.38835,	2.16374e-06,	25,	,	,	,	,	,	,	,	,	,	,	,	,	,
7175.51,	1.3702,	2.00467e-06,	25,	,	,	,	,	,	,	,	,	,	,	,	,	,
7213.51,	1.35372,	2.18586e-06,	25,	,	,	,	,	,	,	,	,	,	,	,	,	,
7251.51,	1.33815,	2.01345e-06,	25,	,	,	,	,	,	,	,	,	,	,	,	,	,
7276.57,	1.44671,	0.0100034,	26,	,	,	,	,	,	,	,	,	,	,	,	,	,
7294.47,	1.67669,	0.010004,	26,	,	,	,	,	,	,	,	,	,	,	,	,	,
7332.47,	1.68423,	0.0100036,	26,	,	,	,	,	,	,	,	,	,	,	,	,	,
7370.47,	1.68873,	0.0100037,	26,	,	,	,	,	,	,	,	,	,	,	,	,	,
7408.47,	1.69209,	0.010004,	26,	,	,	,	,	,	,	,	,	,	,	,	,	,
7446.47,	1.69497,	0.0100036,	26,	,	,	,	,	,	,	,	,	,	,	,	,	,
7484.47,	1.69747,	0.01000371,	26,	,	,	,	,	,	,	,	,	,	,	,	,	,
7522.47,	1.69965,	0.0100038,	26,	,	,	,	,	,	,	,	,	,	,	,	,	,
7560.47,	1.70165,	0.0100039,	26,	,	,	,	,	,	,	,	,	,	,	,	,	,
7587.15,	1.52871,	2.21714e-06,	27,	,	,	,	,	,	,	,	,	,	,	,	,	,
7625.15,	1.47734,	2.12445e-06,	27,	,	,	,	,	,	,	,	,	,	,	,	,	,
7663.15,	1.453873,	2.43686e-06,	27,	,	,	,	,	,	,	,	,	,	,	,	,	,
7701.15,	1.43669,	2.1523e-06,	27,	,	,	,	,	,	,	,	,	,	,	,	,	,
7739.15,	1.42221,	2.052735e-06,	27,	,	,	,	,	,	,	,	,	,	,	,	,	,
7777.15,	1.40919,	2.12063e-06,	27,	,	,	,	,	,	,	,	,	,	,	,	,	,
7815.15,	1.397423,	2.02565e-06,	27,	,	,	,	,	,	,	,	,	,	,	,	,	,
7853.15,	1.38669,	2.13551e-06,	27,	,	,	,	,	,	,	,	,	,	,	,	,	,
7876.53,	1.51172,	0.0150035,	28,	,	,	,	,	,	,	,	,	,	,	,	,	,
7897.23,	1.71108,	0.0150044,	28,	,	,	,	,	,	,	,	,	,	,	,	,	,
7935.23,	1.717098,	0.0150045,	28,	,	,	,	,	,	,	,	,	,	,	,	,	,
7973.23,	1.72077,	0.01500435,	28,	,	,	,	,	,	,	,	,	,	,	,	,	,
8011.23,	1.72355,	0.0150038,	28,	,	,	,	,	,	,	,	,	,	,	,	,	,
8049.23,	1.726,	0.0150039,	28,	,	,	,	,	,	,	,	,	,	,	,	,	,
8087.23,	1.72807,	0.015004,	28,	,	,	,	,	,	,	,	,	,	,	,	,	,
8125.23,	1.729946,	0.015004,	28,	,	,	,	,	,	,	,	,	,	,	,	,	,
8163.23,	1.73175,	0.015004,	28,	,	,	,	,	,	,	,	,	,	,	,	,	,
8187.52,	1.540042,	2.22019e-06,	29,	,	,	,	,	,	,	,	,	,	,	,	,	,
8225.52,	1.48987,	2.14772e-06,	29,	,	,	,	,	,	,	,	,	,	,	,	,	,
8263.52,	1.46802,	2.29954e-06,	29,	,	,	,	,	,	,	,	,	,	,	,	,	,
8301.52,	1.45281,	2.12102e-06,	29,	,	,	,	,	,	,	,	,	,	,	,	,	,
8339.52,	1.44072,	2.09813e-06,	29,	,	,	,	,	,	,	,	,	,	,	,	,	,
8377.52,	1.43028,	2.1214e-06,	29,	,	,	,	,	,	,	,	,	,	,	,	,	,
8415.52,	1.42109,	2.13246e-06,	29,	,	,	,	,	,	,	,	,	,	,	,	,	,
8453.52,	1.41271,	2.05998e-06,	29,	,	,	,	,	,	,	,	,	,	,	,	,	,
8476.51,	1.54967,	0.02000358,	30,	,	,	,	,	,	,	,	,	,	,	,	,	,
8498.51,	1.73624,	0.0200039,	30,	,	,	,	,	,	,	,	,	,	,	,	,	,
8536.51,	1.7417,	0.02000457,	30,	,	,	,	,	,	,	,	,	,	,	,	,	,
8574.51,	1.74488,	0.02000396,	30,	,	,	,	,	,	,	,	,	,	,	,	,	,
8612.51,	1.74733,	0.0200037,	30,	,	,	,	,	,	,	,	,	,	,	,	,	,
8650.51,	1.74948,	0.0200042,	30,	,	,	,	,	,	,	,	,	,	,	,	,	,
8688.51,	1.75131,	0.02000377,	30,	,	,	,	,	,	,	,	,	,	,	,	,	,
8726.51,	1.75292,	0.0200042,	30,	,	,	,	,	,	,	,	,	,	,	,	,	,
8764.51,	1.75452,	0.02000358,	30,	,	,	,	,	,	,	,	,	,	,	,	,	,
8788.32,	1.54707,	2.14238e-06,	31,	,	,	,	,	,	,	,	,	,	,	,	,	,
8826.32,	1.49867,	2.108809e-06,	31,	,	,	,	,	,	,	,	,	,	,	,	,	,
8864.32,	1.478186,	1.94249e-06,	31,	,	,	,	,	,	,	,	,	,	,	,	,	,
8902.32,	1.464299,	1.966527e-06,	31,	,	,	,	,	,	,	,	,	,	,	,	,	,
8940.32,	1.45337,	2.06113e-06,	31,	,	,	,	,	,	,	,	,	,	,	,	,	,
8978.32,	1.44409,	2.09737e-06,	31,	,	,	,	,	,	,	,	,	,	,	,	,	,
9016.32,	1.43623,	1.99208e-06,	31,	,	,	,	,	,	,	,	,	,	,	,	,	,
9054.32,	1.42904,	2.20532e-06,	31,	,	,	,	,	,	,	,	,	,	,	,	,	,
9088.55,	0.919669,	0.000243809,	32,	,	,	,	,	,	,	,	,	,	,	,	,	,
9099.95,	1.14753,	0.000821666,	32,	,	,	,	,	,	,	,	,	,	,	,	,	,
9111.34,	1.37543,	0.000660451,	32,	,	,	,	,	,	,	,	,	,	,	,	,	,
9122.74,	1.60332,	0.00351911,	32,	,	,	,	,	,	,	,	,	,	,	,	,	,
9133.74,	1.57755,	0.00038849,	32,	,	,	,	,	,	,	,	,	,	,	,	,	,
9145.14,	1.34966,	-0.000211692,	32,	,	,	,	,	,	,	,	,	,	,	,	,	,
9156.53,	1.12172,	-0.000552612,	32,	,	,	,	,	,	,	,	,	,	,	,	,	,
9167.92,	0.8938629,	-0.0021578,	32,	,	,	,	,	,	,	,	,	,	,	,	,	,
9179.32,	0.665982,	-0.0461464,	32,	,	,	,	,	,	,	,	,	,	,	,	,	,
9190.71,	0.438133,	-0.000986208,	32,	,	,	,	,	,	,	,	,	,	,	,	,	,
9202.11,	0.210191,	-0.0037675,	32,	,	,	,	,	,	,	,	,	,	,	,	,	,
9212.86,	0.0260548,	0.02249,	32,	,	,	,	,	,	,	,	,	,	,	,	,	,
9224.25,	0.253863,	0.00306859,	32,	,	,	,	,	,	,	,	,	,	,	,	,	,
9235.65,	0.481615,	5.70749e-05,	32,	,	,	,	,	,	,	,	,	,	,	,	,	,
9247.04,	0.709503,	0.000557401,	32,	,	,	,	,	,	,	,	,	,	,	,	,	,
9257.86,	0.925959,	0.00467527,	33,	,	,	,	,	,	,	,	,	,	,	,	,	,
9269.26,	1.153872,	0.00397908,	33,	,	,	,	,	,	,	,	,	,	,	,	,	,
9280.65,	1.38173,	0.00452258,	33,	,	,	,	,	,	,	,	,	,	,	,	,	,
9292.05,	1.60962,	0.0225498,	33,	,	,	,	,	,	,	,	,	,	,	,	,	,
9303.04,	1.57152,	0.00134132,	33,	,	,	,	,	,	,	,	,	,	,	,	,	,
9314.43,	1.3436,	-0.000305345,	33,	,	,	,	,	,	,	,	,	,	,	,	,	,
9325.83,	1.11576,	-0.000733027,	33,	,	,	,	,	,	,	,	,	,	,	,	,	,
9337.22,	0.887892,	-0.00330838,	33,	,	,	,	,	,	,	,	,	,	,	,	,	,
9348.61,	0.660024,	-0.00685683,	33,	,	,	,	,	,	,	,	,	,	,	,	,	,
9360.01,	0.432132,	-0.00105775,	33,	,	,	,	,	,	,	,	,	,	,	,	,	,
9371.4,	0.204182,	-0.00375312,	33,	,	,	,	,	,	,	,	,	,	,	,	,	,
9382.15,	0.0320206,	0.0200397,	33,	,	,	,	,	,	,	,	,	,	,	,	,	,
9393.55,	0.259851,	0.00313488,	33,	,	,	,	,	,	,	,	,	,	,	,	,	,
9404.94,	0.487627,	0.00010367,	33,	,	,	,	,	,	,	,	,	,	,	,	,	,
9416.34,	0.715522,	0.000531163,	33,	,	,	,	,	,	,	,	,	,	,	,	,	,
9427.16,	0.931966,	0.00464204,	34,	,	,	,	,	,	,	,	,	,	,	,	,	,
9438.55,	1.15984,	0.00399331,	34,	,	,	,	,	,	,	,	,	,	,	,	,	,
9449.95,	1.38773,	0.00449112,	34,	,	,	,	,	,	,	,	,	,	,	,	,	,
9461.34,	1.61562,	0.0250598,	34,	,	,	,	,	,	,	,	,	,	,	,	,	,
9472.33,	1.56553,	0.00111488,	34,	,	,	,	,	,	,	,	,	,	,	,	,	,
9483.73,	1.33764,	-0.000305793,	34,	,	,	,	,	,	,	,	,	,	,	,	,	,
9495.12,	1.10977,	-0.000753609,	34,	,	,	,	,	,	,	,	,	,	,	,	,	,
9506.52,	0.881908,	-0.00350734,	34,	,	,	,	,	,	,	,	,	,	,	,	,	,
9517.91,	0.654015,	-0.00589488,	34,	,	,	,	,	,	,	,	,	,	,	,	,	,
9529.3,	0.426136,	-0.00103268,	34,	,	,	,	,	,	,	,	,	,	,	,	,	,
9540.7,	0.198208,	-0.00379666,	34,	,	,	,	,	,	,	,	,	,	,	,	,	,
9551.45,	0.0380097,	0.0177738,	34,	,	,	,	,	,	,	,	,	,	,	,	,	,
9562.84,	0.265866,	0.00315521,	34,	,	,	,	,	,	,	,	,	,	,	,	,	,
9574.24,	0.493611,	0.000134,	34,	,	,	,	,	,	,	,	,	,	,	,	,	,
9585.63,	0.721511,	0.000564535,	34,	,	,	,	,	,	,	,	,	,	,	,	,	,
9596.46,	0.937986,	0.00460452,	35,	,	,	,	,	,	,	,	,	,	,	,	,	,
9599.08,	0.990639,	0.00439324,	35,	,	,	,	,	,	,	,	,	,	,	,	,	,