File: Quantification/development/HER + OER repeatability multiple MS/HERonPt_RnD1_newMS_nonaqu.csv
ixdat version = 0.2.2dev
name = 2022-04-07 13_20_11 HER on Pt repeatability non-aqu.tsv
technique = EC-MS
tstamp = 1649330411.0
backend_name = BackendBase(none, address=none)
id = 1
timecol 'time/s' for: 'Ewe/V' and 'I/mA' and 'selector'
timecol 'M40-x' for: 'M40'
timecol 'M28-x' for: 'M28'
timecol 'M18-x' for: 'M18'
timecol 'M4-x' for: 'M4'
timecol 'M32-x' for: 'M32'
timecol 'M44-x' for: 'M44'
timecol 'M2-x' for: 'M2'
aliases = {"t": ["time/s"], "raw_potential": ["Ewe/V", "<Ewe>/V"], "raw_current": ["I/mA", "<I>/mA"], "cycle": ["cycle number"]}
N_header_lines = 18

time/s,	Ewe/V,	I/mA,	selector,	M40-x,	M40,	M28-x,	M28,	M18-x,	M18,	M4-x,	M4,	M32-x,	M32,	M44-x,	M44,	M2-x,	M2
336.708,	0.9296044,	-0.0002409944,	0,	0.912514,	9.146161e-10,	0.763584,	8.312599e-08,	0.689619,	2.575452e-09,	0.614655,	4.239637e-09,	0.838549,	2.240594e-08,	0.987478,	1.425246e-10,	0.540689,	1.877197e-09
344.894,	0.929589,	0.000563672,	0,	32.4215,	9.198181e-10,	32.2725,	8.277306e-08,	32.1985,	2.486153e-09,	32.1235,	4.223228e-09,	32.3475,	2.240293e-08,	32.4965,	1.367979e-10,	32.0495,	1.863271e-09
353.96,	1.089343,	0.00108243,	0,	63.9321,	9.178949e-10,	63.7831,	8.275489e-08,	63.7081,	2.397326e-09,	63.6341,	4.219612e-09,	63.8571,	2.247836e-08,	64.0061,	1.390745e-10,	63.5591,	1.864457e-09
363.041,	1.270842,	0.004642735,	0,	95.4402,	9.288056e-10,	95.2913,	8.285315e-08,	95.2163,	2.353032e-09,	95.1423,	4.240586e-09,	95.3653,	2.250145e-08,	95.5143,	1.373618e-10,	95.0673,	1.850659e-09
372.198,	1.454064,	0.008077836,	0,	126.95,	9.013935e-10,	126.801,	8.17472e-08,	126.726,	2.297482e-09,	126.652,	4.879816e-09,	126.875,	2.205294e-08,	127.024,	1.357318e-10,	126.577,	1.847812e-09
381.278,	1.635727,	0.03952816,	0,	158.458,	8.893316e-10,	158.309,	7.97063e-08,	158.235,	2.238924e-09,	158.16,	5.716301e-09,	158.384,	2.156668e-08,	158.533,	1.3998e-10,	158.086,	1.847248e-09
390.406,	1.582662,	0.00588409,	0,	189.968,	8.789406e-10,	189.819,	7.913876e-08,	189.745,	2.360687e-09,	189.67,	5.761746e-09,	189.894,	2.132671e-08,	190.043,	1.363921e-10,	189.596,	1.852024e-09
399.501,	1.40059,	0.002141322,	0,	221.478,	1.173851e-10,	221.329,	6.142077e-09,	221.254,	4.293639e-09,	221.18,	4.503629e-08,	221.403,	2.63777e-09,	221.552,	1.21916e-10,	221.105,	2.224089e-09
408.543,	1.219897,	0.0008675213,	0,	252.986,	1.335222e-11,	252.837,	8.614174e-10,	252.762,	4.634864e-09,	252.688,	4.786307e-08,	252.911,	4.744883e-10,	253.06,	8.48562e-11,	252.613,	2.212252e-09
417.707,	1.036583,	0.0002502796,	0,	284.494,	9.964458e-12,	284.345,	6.292313e-10,	284.27,	4.834066e-09,	284.197,	4.917391e-08,	284.42,	3.949587e-10,	284.569,	7.537455e-11,	284.122,	2.23412e-09
426.935,	0.8520924,	-0.007037143,	0,	316.003,	7.960908e-12,	315.854,	5.03944e-10,	315.78,	4.92174e-09,	315.705,	4.856517e-08,	315.929,	3.48075e-10,	316.078,	7.011219e-11,	315.631,	2.253095e-09
436.011,	0.6705092,	-0.01091542,	0,	347.513,	7.192314e-12,	347.364,	4.549958e-10,	347.29,	4.949205e-09,	347.215,	4.835788e-08,	347.439,	3.281276e-10,	347.588,	6.446848e-11,	347.141,	2.280255e-09
445.22,	0.4794055,	0.2221336,	0,	379.022,	6.296372e-12,	378.873,	4.244136e-10,	378.798,	4.950303e-09,	378.724,	4.885258e-08,	378.947,	3.686855e-10,	379.096,	7.883948e-11,	378.649,	2.318504e-09
454.429,	0.3022616,	-0.00253437,	0,	410.531,	6.667756e-12,	410.382,	4.008288e-10,	410.307,	5.002649e-09,	410.233,	4.903446e-08,	410.456,	3.308643e-10,	410.605,	7.595807e-11,	410.158,	2.339101e-09
463.533,	0.1200213,	-0.01556172,	0,	442.04,	5.772236e-12,	441.891,	3.727635e-10,	441.816,	4.928068e-09,	441.742,	4.873618e-08,	441.965,	2.859216e-10,	442.114,	6.839519e-11,	441.667,	2.373376e-09
472.604,	0.08245152,	-0.003177187,	0,	473.549,	5.679267e-12,	473.4,	3.521061e-10,	473.326,	5.016892e-09,	473.251,	4.902358e-08,	473.475,	2.776529e-10,	473.624,	6.01653e-11,	473.177,	5.274446e-09
481.833,	0.2670758,	0.008157997,	0,	505.057,	5.735273e-12,	504.908,	3.420842e-10,	504.835,	4.872511e-09,	504.76,	4.874713e-08,	504.984,	2.696137e-10,	505.132,	5.649093e-11,	504.685,	2.396327e-09
491.009,	0.4506189,	0.004799623,	0,	536.568,	5.773039e-12,	536.419,	3.339131e-10,	536.344,	4.92844e-09,	536.27,	4.88999e-08,	536.493,	2.697957e-10,	536.642,	8.197501e-11,	536.195,	2.410673e-09
500.098,	0.6324238,	-0.003191311,	0,	568.075,	5.298917e-12,	567.926,	3.351565e-10,	567.851,	4.868071e-09,	567.777,	4.897991e-08,	568,	4.788444e-10,	568.149,	1.084239e-10,	567.702,	2.383331e-09
509.264,	0.815623,	0.0009595159,	0,	599.585,	5.052401e-12,	599.436,	3.19229e-10,	599.361,	4.880399e-09,	599.287,	4.901996e-08,	599.51,	2.731818e-10,	599.659,	7.633314e-11,	599.212,	2.422182e-09
518.454,	0.9994335,	0.003153263,	1,	631.094,	5.362579e-12,	630.945,	3.096887e-10,	630.871,	4.854542e-09,	630.796,	4.906724e-08,	631.02,	2.573226e-10,	631.169,	6.742801e-11,	630.722,	2.431411e-09
527.696,	1.184363,	0.006515074,	1,	662.604,	5.016224e-12,	662.455,	3.054217e-10,	662.381,	4.869551e-09,	662.306,	4.90163e-08,	662.53,	2.568582e-10,	662.679,	5.896477e-11,	662.232,	2.450344e-09
536.961,	1.369759,	0.01082393,	1,	694.113,	5.334377e-12,	693.964,	3.028574e-10,	693.889,	4.856847e-09,	693.815,	4.92528e-08,	694.038,	2.552359e-10,	694.187,	7.106937e-11,	693.74,	2.44236e-09
546.132,	1.553142,	0.02215263,	1,	725.623,	4.692375e-12,	725.474,	3.059464e-10,	725.399,	4.829828e-09,	725.325,	4.803771e-08,	725.548,	1.500104e-09,	725.697,	1.181026e-10,	725.25,	2.368084e-09
555.075,	1.66911,	0.02444524,	1,	757.13,	5.062694e-12,	756.981,	2.994661e-10,	756.906,	4.741374e-09,	756.832,	4.968867e-08,	757.055,	2.653322e-10,	757.204,	7.949018e-11,	756.757,	2.42945e-09
564.185,	1.486652,	-8.830633e-05,	1,	788.64,	4.816579e-12,	788.491,	2.926618e-10,	788.417,	4.831947e-09,	788.342,	4.937285e-08,	788.566,	2.459468e-10,	788.715,	6.877114e-11,	788.268,	2.444438e-09
573.334,	1.303823,	-0.0002845106,	1,	820.149,	4.722716e-12,	820,	2.85415e-10,	819.926,	4.806757e-09,	819.851,	4.913637e-08,	820.075,	2.455113e-10,	820.224,	5.811882e-11,	819.777,	2.487155e-09
582.543,	1.119608,	-0.0004864406,	1,	851.659,	4.669758e-12,	851.51,	2.808226e-10,	851.435,	4.790462e-09,	851.361,	4.925642e-08,	851.584,	2.467611e-10,	851.733,	6.593746e-11,	851.286,	2.458075e-09
591.757,	0.9352661,	-0.002235865,	1,	883.167,	4.739949e-12,	883.018,	2.83743e-10,	882.943,	4.790112e-09,	882.869,	4.91364e-08,	883.092,	2.569704e-10,	883.241,	9.104758e-11,	882.794,	2.454462e-09
600.983,	0.7508253,	-0.01909187,	1,	914.676,	4.717414e-12,	914.527,	2.842508e-10,	914.452,	4.747546e-09,	914.378,	4.906722e-08,	914.601,	3.042063e-10,	914.75,	8.646013e-11,	914.303,	2.442254e-09
610.104,	0.568222,	-0.002704999,	1,	946.185,	4.820493e-12,	946.036,	2.731445e-10,	945.962,	4.859123e-09,	945.887,	4.915456e-08,	946.111,	2.438477e-10,	946.26,	7.132183e-11,	945.813,	2.448404e-09
619.181,	0.3868566,	-0.001379284,	1,	977.694,	4.620439e-12,	977.545,	2.754682e-10,	977.471,	4.746645e-09,	977.396,	4.896172e-08,	977.62,	2.401657e-10,	977.769,	5.903125e-11,	977.322,	7.060891e-09
628.209,	0.2062475,	-0.003684112,	1,	1009.2,	4.39439e-12,	1009.06,	2.690274e-10,	1008.98,	4.742297e-09,	1008.91,	4.868891e-08,	1009.13,	2.407656e-10,	1009.28,	5.402e-11,	1008.83,	2.466286e-09
637.184,	0.02676548,	-0.05888736,	1,	1040.71,	4.635404e-12,	1040.56,	2.726454e-10,	1040.49,	4.822509e-09,	1040.41,	4.927095e-08,	1040.64,	2.430814e-10,	1040.79,	7.479673e-11,	1040.34,	2.461986e-09
646.398,	0.1787216,	0.006705552,	1,	1072.22,	4.44428e-12,	1072.07,	2.74895e-10,	1072,	4.742831e-09,	1071.92,	4.847058e-08,	1072.15,	8.298743e-10,	1072.3,	9.48492e-11,	1071.85,	2.385342e-09
655.401,	0.3588913,	0.00315937,	1,	1103.73,	4.523131e-12,	1103.58,	2.667321e-10,	1103.51,	4.719442e-09,	1103.43,	4.916914e-08,	1103.66,	2.53016e-10,	1103.81,	6.936809e-11,	1103.36,	2.46782e-09
664.481,	0.5403408,	0.000274328,	1,	1135.24,	4.731654e-12,	1135.09,	2.640047e-10,	1135.02,	4.77316e-09,	1134.94,	4.913639e-08,	1135.17,	2.35413e-10,	1135.32,	6.229433e-11,	1134.87,	2.463594e-09
673.74,	0.7256336,	0.001541639,	1,	1166.75,	4.42478e-12,	1166.6,	2.61392e-10,	1166.53,	4.752632e-09,	1166.45,	4.900172e-08,	1166.67,	2.383905e-10,	1166.82,	5.317293e-11,	1166.38,	2.482033e-09
682.766,	0.9062465,	0.001357269,	1,	1198.26,	4.376287e-12,	1198.11,	2.611046e-10,	1198.03,	4.761643e-09,	1197.96,	4.883436e-08,	1198.18,	2.362945e-10,	1198.33,	6.53357e-11,	1197.89,	2.467389e-09
691.747,	1.08582,	0.004176273,	2,	1229.77,	4.398227e-12,	1229.62,	2.674592e-10,	1229.54,	4.68977e-09,	1229.47,	4.839785e-08,	1229.69,	9.405836e-10,	1229.84,	8.964174e-11,	1229.39,	2.448847e-09
700.88,	1.268427,	0.008048063,	2,	1261.28,	4.347758e-12,	1261.13,	2.615087e-10,	1261.05,	4.723777e-09,	1260.98,	4.922728e-08,	1261.2,	2.666167e-10,	1261.35,	6.899532e-11,	1260.9,	2.465206e-09
710.014,	1.451038,	0.01053039,	2,	1292.79,	4.459742e-12,	1292.64,	2.596034e-10,	1292.56,	4.751038e-09,	1292.49,	4.917639e-08,	1292.71,	2.357163e-10,	1292.86,	6.238332e-11,	1292.41,	2.475108e-09
719.1,	1.632774,	0.03296791,	2,	1324.3,	4.221188e-12,	1324.15,	2.608009e-10,	1324.07,	4.765003e-09,	1324,	4.91473e-08,	1324.22,	2.353803e-10,	1324.37,	5.443117e-11,	1323.92,	2.566898e-09
728.206,	1.586024,	0.002953241,	2,	1355.8,	4.348554e-12,	1355.65,	2.570472e-10,	1355.58,	4.69932e-09,	1355.51,	4.904906e-08,	1355.73,	2.340171e-10,	1355.88,	5.907298e-11,	1355.43,	2.502515e-09
737.422,	1.401522,	0.001881752,	2,	1387.31,	4.550146e-12,	1387.16,	2.523451e-10,	1387.09,	4.681898e-09,	1387.02,	4.890717e-08,	1387.24,	2.280154e-10,	1387.39,	5.70929e-11,	1386.94,	2.483314e-09
746.403,	1.221914,	0.001216795,	2,	1418.82,	4.335123e-12,	1418.67,	2.516437e-10,	1418.6,	4.652136e-09,	1418.52,	4.877256e-08,	1418.75,	2.311886e-10,	1418.9,	5.319499e-11,	1418.45,	2.477974e-09
755.815,	1.033611,	-0.003734117,	2,	1450.33,	4.426079e-12,	1450.18,	2.54152e-10,	1450.11,	4.692793e-09,	1450.03,	4.90527e-08,	1450.26,	2.28639e-10,	1450.41,	5.234012e-11,	1449.96,	2.489061e-09
764.981,	0.8503885,	-0.005137321,	2,	1481.84,	4.442769e-12,	1481.69,	2.492956e-10,	1481.62,	4.691502e-09,	1481.54,	4.869982e-08,	1481.77,	2.3014e-10,	1481.91,	5.214848e-11,	1481.47,	2.482271e-09
774.11,	0.6678426,	-0.01132157,	2,	1513.35,	4.202963e-12,	1513.2,	2.510061e-10,	1513.13,	4.674343e-09,	1513.05,	4.896538e-08,	1513.28,	2.308069e-10,	1513.42,	5.003025e-11,	1512.98,	2.491804e-09
783.221,	0.4854341,	-0.0001959515,	2,	1544.86,	4.218661e-12,	1544.71,	2.482335e-10,	1544.63,	4.690845e-09,	1544.56,	4.881624e-08,	1544.78,	2.305064e-10,	1544.93,	4.985651e-11,	1544.48,	2.484629e-09
792.438,	0.301295,	-0.0009765696,	2,	1576.37,	4.198089e-12,	1576.22,	2.503295e-10,	1576.14,	4.64366e-09,	1576.07,	4.900175e-08,	1576.29,	2.275699e-10,	1576.44,	4.881065e-11,	1575.99,	2.505577e-09
801.584,	0.1184358,	-0.009765298,	2,	1607.88,	4.162751e-12,	1607.73,	2.46257e-10,	1607.65,	4.628983e-09,	1607.58,	4.858338e-08,	1607.8,	2.278851e-10,	1607.95,	4.91199e-11,	1607.5,	2.498073e-09
810.63,	0.08371606,	0.00728195,	2,	1639.39,	4.141573e-12,	1639.24,	2.478443e-10,	1639.16,	4.716838e-09,	1639.09,	4.918728e-08,	1639.31,	2.28493e-10,	1639.46,	4.772189e-11,	1639.01,	2.507413e-09
819.741,	0.2660061,	0.006020746,	2,	1670.9,	4.293408e-12,	1670.75,	2.473274e-10,	1670.67,	4.670425e-09,	1670.6,	4.878708e-08,	1670.82,	2.259167e-10,	1670.97,	4.896453e-11,	1670.52,	2.488994e-09
829.032,	0.4519064,	-0.00151136,	2,	1702.4,	4.219521e-12,	1702.26,	2.463018e-10,	1702.18,	4.666444e-09,	1702.11,	4.886351e-08,	1702.33,	2.261684e-10,	1702.48,	4.735573e-11,	1702.03,	2.498073e-09
838.131,	0.633948,	-0.0005318653,	2,	1733.91,	4.098358e-12,	1733.76,	2.436572e-10,	1733.69,	4.599095e-09,	1733.62,	4.939714e-08,	1733.84,	2.235894e-10,	1733.99,	4.713772e-11,	1733.54,	2.921555e-09
847.274,	0.8164902,	0.001107623,	2,	1765.42,	4.012824e-12,	1765.27,	2.423606e-10,	1765.2,	4.672232e-09,	1765.12,	4.881258e-08,	1765.35,	2.233505e-10,	1765.5,	4.633229e-11,	1765.05,	3.172388e-09
856.572,	1.002753,	0.006940692,	3,	1796.93,	3.994625e-12,	1796.78,	2.426418e-10,	1796.71,	4.703795e-09,	1796.63,	4.895442e-08,	1796.86,	2.242609e-10,	1797.01,	4.595985e-11,	1796.56,	3.203215e-09
865.813,	1.18745,	0.006144423,	3,	1828.44,	4.095523e-12,	1828.29,	2.410855e-10,	1828.22,	4.627205e-09,	1828.14,	4.906486e-08,	1828.37,	2.238317e-10,	1828.51,	4.592718e-11,	1828.07,	3.228555e-09
874.986,	1.37102,	0.007597632,	3,	1859.95,	4.041334e-12,	1859.8,	2.391608e-10,	1859.72,	4.644726e-09,	1859.65,	4.886348e-08,	1859.87,	2.205804e-10,	1860.02,	4.736776e-11,	1859.58,	3.246737e-09
884.179,	1.554842,	0.01610656,	3,	1891.46,	4.15849e-12,	1891.31,	2.39319e-10,	1891.23,	4.670938e-09,	1891.16,	4.892172e-08,	1891.38,	2.209169e-10,	1891.53,	4.573709e-11,	1891.09,	3.242973e-09
893.091,	1.667815,	0.03213118,	3,	1922.97,	3.920934e-12,	1922.82,	2.379471e-10,	1922.74,	4.607755e-09,	1922.67,	4.876529e-08,	1922.89,	2.201438e-10,	1923.04,	4.535699e-11,	1922.6,	3.236404e-09
902.167,	1.486484,	0.0001540861,	3,	1954.48,	3.981869e-12,	1954.33,	2.392012e-10,	1954.25,	4.596372e-09,	1954.18,	4.868525e-08,	1954.4,	2.214237e-10,	1954.55,	4.553153e-11,	1954.1,	3.248026e-09
911.24,	1.305004,	-0.0001948063,	3,	1985.99,	4.056791e-12,	1985.84,	2.36618e-10,	1985.76,	4.608081e-09,	1985.69,	4.8718e-08,	1985.91,	2.202081e-10,	1986.06,	4.544705e-11,	1985.61,	2.53002e-09
920.338,	1.122985,	-0.001329279,	3,	2017.49,	4.044303e-12,	2017.35,	2.356424e-10,	2017.27,	4.574494e-09,	2017.2,	4.880893e-08,	2017.42,	2.200243e-10,	2017.57,	4.60973e-11,	2017.12,	2.509775e-09
929.349,	0.9428,	-0.003024499,	3,	2049,	4.065292e-12,	2048.86,	2.329849e-10,	2048.78,	4.637671e-09,	2048.71,	4.827414e-08,	2048.93,	2.186825e-10,	2049.08,	4.524397e-11,	2048.63,	2.494515e-09
938.483,	0.7601662,	-0.02124821,	3,	2080.51,	4.121637e-12,	2080.36,	2.355191e-10,	2080.29,	4.578574e-09,	2080.21,	4.869255e-08,	2080.44,	2.185354e-10,	2080.59,	4.440184e-11,	2080.14,	2.509512e-09
947.606,	0.5775323,	-0.002555365,	3,	2112.02,	4.0556e-12,	2111.87,	2.352611e-10,	2111.8,	4.591396e-09,	2111.72,	4.849604e-08,	2111.95,	2.200035e-10,	2112.1,	4.591818e-11,	2111.65,	2.499832e-09
956.692,	0.3958536,	-0.001380811,	3,	2143.53,	3.815345e-12,	2143.38,	2.359118e-10,	2143.31,	4.614148e-09,	2143.23,	4.931012e-08,	2143.46,	2.178351e-10,	2143.61,	4.49667e-11,	2143.16,	2.494089e-09
965.791,	0.2137928,	-0.006427154,	3,	2175.04,	3.872753e-12,	2174.89,	2.34133e-10,	2174.82,	4.589923e-09,	2174.74,	4.867795e-08,	2174.96,	2.178013e-10,	2175.11,	4.53612e-11,	2174.67,	2.507886e-09
974.829,	0.03302328,	-0.03752782,	3,	2206.55,	3.931205e-12,	2206.4,	2.337596e-10,	2206.33,	4.581064e-09,	2206.25,	4.84415e-08,	2206.47,	2.164302e-10,	2206.62,	4.524136e-11,	2206.18,	2.495992e-09
983.904,	0.1697016,	0.009209638,	3,	2238.06,	4.065302e-12,	2237.91,	2.309077e-10,	2237.84,	4.543518e-09,	2237.76,	4.869617e-08,	2237.98,	2.157518e-10,	2238.13,	4.490695e-11,	2237.69,	2.487886e-09
993.142,	0.3544252,	0.002670768,	3,	2269.57,	4.189383e-12,	2269.42,	2.331395e-10,	2269.34,	4.603402e-09,	2269.27,	4.883436e-08,	2269.49,	2.204431e-10,	2269.64,	4.488675e-11,	2269.19,	2.50781e-09
1002.23,	0.5361537,	0.0007453709,	3,	2301.08,	3.991971e-12,	2300.93,	2.336124e-10,	2300.85,	4.590878e-09,	2300.78,	4.88489e-08,	2301,	2.154822e-10,	2301.15,	4.462869e-11,	2300.7,	4.058872e-09
1011.52,	0.7218018,	0.0009190536,	3,	2332.59,	4.029087e-12,	2332.44,	2.329197e-10,	2332.36,	4.611151e-09,	2332.29,	4.872159e-08,	2332.51,	2.184331e-10,	2332.66,	4.490282e-11,	2332.21,	4.128136e-09
1020.72,	0.9058989,	0.002665042,	3,	2364.09,	3.843554e-12,	2363.94,	2.331938e-10,	2363.87,	4.56549e-09,	2363.8,	4.891442e-08,	2364.02,	2.188353e-10,	2364.17,	4.488361e-11,	2363.72,	4.158525e-09
1030.02,	1.092059,	0.008351149,	4,	2395.6,	4.054725e-12,	2395.45,	2.338082e-10,	2395.38,	4.539704e-09,	2395.31,	4.846336e-08,	2395.53,	2.165456e-10,	2395.68,	4.4839e-11,	2395.23,	4.182545e-09
1039.13,	1.274078,	0.008980224,	4,	2427.11,	3.802908e-12,	2426.96,	2.295778e-10,	2426.89,	4.533915e-09,	2426.82,	4.848878e-08,	2427.04,	2.142527e-10,	2427.19,	4.467094e-11,	2426.74,	4.169649e-09
1048.06,	1.452815,	0.008957702,	4,	2458.62,	3.999917e-12,	2458.47,	2.304671e-10,	2458.4,	4.593075e-09,	2458.32,	4.869618e-08,	2458.55,	2.162399e-10,	2458.7,	4.492416e-11,	2458.25,	4.169214e-09
1057.2,	1.635743,	0.04534977,	4,	2490.13,	3.855284e-12,	2489.98,	2.325227e-10,	2489.91,	4.58476e-09,	2489.83,	4.885259e-08,	2490.06,	2.154118e-10,	2490.2,	4.463018e-11,	2489.76,	4.173701e-09
1066.34,	1.582727,	0.002584881,	4,	2521.64,	4.128388e-12,	2521.49,	2.318167e-10,	2521.42,	4.558689e-09,	2521.34,	4.895806e-08,	2521.57,	2.170887e-10,	2521.71,	4.532833e-11,	2521.27,	4.196341e-09
1075.37,	1.40177,	0.001632107,	4,	2553.15,	3.929798e-12,	2553,	2.301964e-10,	2552.92,	4.587834e-09,	2552.85,	4.867435e-08,	2553.07,	2.147817e-10,	2553.22,	4.345084e-11,	2552.78,	4.202882e-09
1084.41,	1.220982,	0.0006552849,	4,	2584.66,	4.128121e-12,	2584.51,	2.312539e-10,	2584.43,	4.534472e-09,	2584.36,	4.87107e-08,	2584.58,	2.155475e-10,	2584.73,	4.395818e-11,	2584.29,	2.594846e-09
1093.27,	1.044155,	-0.001791542,	4,	2616.17,	3.860962e-12,	2616.02,	2.302985e-10,	2615.94,	4.557242e-09,	2615.87,	4.86416e-08,	2616.09,	2.179498e-10,	2616.24,	4.380744e-11,	2615.79,	2.523388e-09
1102.39,	0.8614867,	-0.006480976,	4,	2647.68,	3.930664e-12,	2647.53,	2.293062e-10,	2647.45,	4.495975e-09,	2647.38,	4.856517e-08,	2647.6,	2.130236e-10,	2647.75,	4.445408e-11,	2647.3,	2.529668e-09
1111.59,	0.6776686,	-0.0151048,	4,	2679.18,	4.271104e-12,	2679.04,	2.319948e-10,	2678.96,	4.531735e-09,	2678.89,	4.859067e-08,	2679.11,	2.163533e-10,	2679.26,	4.469955e-11,	2678.81,	2.526929e-09
1120.89,	0.4914168,	0.0005587096,	4,	2710.69,	3.95216e-12,	2710.55,	2.302929e-10,	2710.47,	4.534349e-09,	2710.4,	4.86161e-08,	2710.62,	2.147429e-10,	2710.77,	4.439946e-11,	2710.32,	2.519122e-09
1130.1,	0.3071326,	-0.004994176,	4,	2742.2,	4.200177e-12,	2742.06,	2.285333e-10,	2741.98,	4.525703e-09,	2741.91,	4.820501e-08,	2742.13,	2.128018e-10,	2742.28,	4.390704e-11,	2741.83,	2.50791e-09
1139.33,	0.1226726,	-0.01279997,	4,	2773.71,	3.836897e-12,	2773.56,	2.283795e-10,	2773.49,	4.504868e-09,	2773.41,	4.846695e-08,	2773.64,	2.149254e-10,	2773.79,	4.420328e-11,	2773.34,	2.512788e-09
1148.52,	0.08211151,	0.008298853,	4,	2805.22,	3.875886e-12,	2805.07,	2.280066e-10,	2805,	4.529742e-09,	2804.92,	4.868163e-08,	2805.15,	2.134783e-10,	2805.3,	4.391942e-11,	2804.85,	2.512522e-09
1157.61,	0.2641456,	0.007289966,	4,	2836.73,	3.907713e-12,	2836.58,	2.291975e-10,	2836.51,	4.500612e-09,	2836.43,	4.884894e-08,	2836.66,	2.136292e-10,	2836.81,	4.366995e-11,	2836.36,	2.522481e-09
1166.88,	0.4494766,	0.00126222,	4,	2868.24,	4.073846e-12,	2868.09,	2.252461e-10,	2868.02,	4.515509e-09,	2867.94,	4.816866e-08,	2868.16,	2.130982e-10,	2868.31,	4.416905e-11,	2867.87,	2.743518e-09
1176.32,	0.6382842,	0.005000789,	4,	2899.75,	4.111116e-12,	2899.6,	2.296536e-10,	2899.53,	4.538851e-09,	2899.45,	4.890719e-08,	2899.67,	2.125913e-10,	2899.82,	4.402068e-11,	2899.38,	5.928005e-09
1185.57,	0.8233364,	0.003957929,	4,	2931.26,	4.095675e-12,	2931.11,	2.272376e-10,	2931.03,	4.484353e-09,	2930.96,	4.833241e-08,	2931.18,	2.105646e-10,	2931.33,	4.384526e-11,	2930.88,	5.926296e-09
1194.71,	1.006066,	0.004214064,	5,	2962.77,	3.916562e-12,	2962.62,	2.265125e-10,	2962.54,	4.5191e-09,	2962.47,	4.871435e-08,	2962.69,	2.168084e-10,	2962.84,	4.308551e-11,	2962.39,	5.971095e-09
1203.81,	1.188073,	0.005262649,	5,	2994.28,	3.724713e-12,	2994.13,	2.262013e-10,	2994.05,	4.53582e-09,	2993.98,	4.80559e-08,	2994.2,	2.120344e-10,	2994.35,	4.447902e-11,	2993.9,	5.99348e-09
1212.99,	1.371647,	0.01220538,	5,	3025.78,	4.160437e-12,	3025.63,	2.2969e-10,	3025.56,	4.517166e-09,	3025.49,	4.863433e-08,	3025.71,	2.135783e-10,	3025.86,	4.453784e-11,	3025.41,	6.017535e-09
1222.09,	1.553879,	0.0181335,	5,	3057.29,	3.872938e-12,	3057.14,	2.262595e-10,	3057.07,	4.486438e-09,	3057,	4.860522e-08,	3057.22,	2.106797e-10,	3057.37,	4.353043e-11,	3056.92,	6.03805e-09
1231.32,	1.6626,	0.02692833,	5,	3088.8,	3.860895e-12,	3088.65,	2.243442e-10,	3088.58,	4.539447e-09,	3088.51,	4.849608e-08,	3088.73,	2.121393e-10,	3088.88,	4.392621e-11,	3088.43,	6.019394e-09
1240.41,	1.480746,	0.001586682,	5,	3120.31,	4.105345e-12,	3120.16,	2.257268e-10,	3120.09,	4.552573e-09,	3120.01,	4.864525e-08,	3120.24,	2.126214e-10,	3120.39,	4.281704e-11,	3119.94,	6.03247e-09
1249.57,	1.297459,	0.001582102,	5,	3151.82,	3.655227e-12,	3151.67,	2.238376e-10,	3151.6,	4.486917e-09,	3151.52,	4.828507e-08,	3151.75,	2.113246e-10,	3151.89,	4.334949e-11,	3151.45,	5.990038e-09
1258.71,	1.114924,	-0.001801085,	5,	3183.33,	3.996311e-12,	3183.18,	2.282608e-10,	3183.11,	4.48855e-09,	3183.03,	4.829232e-08,	3183.26,	2.122424e-10,	3183.4,	4.40023e-11,	3182.96,	2.631495e-09
1267.95,	0.9302194,	-0.003589445,	5,	3214.84,	3.85495e-12,	3214.69,	2.250907e-10,	3214.62,	4.493058e-09,	3214.54,	4.82196e-08,	3214.77,	2.10136e-10,	3214.91,	4.343179e-11,	3214.47,	2.546376e-09
1277.05,	0.7478225,	-0.02806612,	5,	3246.35,	4.032013e-12,	3246.2,	2.232459e-10,	3246.125,	4.472492e-09,	3246.05,	4.831418e-08,	3246.27,	2.09514e-10,	3246.42,	4.30966e-11,	3245.98,	2.510322e-09
1286.23,	0.5643787,	-0.002068671,	5,	3277.86,	3.709539e-12,	3277.71,	2.235366e-10,	3277.63,	4.49743e-09,	3277.56,	4.769938e-08,	3277.78,	2.107472e-10,	3277.93,	4.257288e-11,	3277.48,	2.510621e-09
1295.38,	0.3814469,	-0.001454483,	5,	3309.37,	4.047652e-12,	3309.22,	2.224732e-10,	3309.14,	4.43775e-09,	3309.07,	4.813957e-08,	3309.29,	2.100657e-10,	3309.44,	4.277074e-11,	3308.99,	2.493769e-09
1304.54,	0.1981406,	-0.003794047,	5,	3340.875,	3.926361e-12,	3340.73,	2.231517e-10,	3340.65,	4.480682e-09,	3340.58,	4.854659e-08,	3340.8,	2.093709e-10,	3340.95,	4.326644e-11,	3340.5,	2.505419e-09
1313.54,	0.01835298,	-0.09472708,	5,	3372.38,	3.773327e-12,	3372.24,	2.22653e-10,	3372.16,	4.424443e-09,	3372.09,	4.776847e-08,	3372.31,	2.096686e-10,	3372.46,	4.248147e-11,	3372.01,	2.495887e-09
1322.6,	0.184391,	0.008162959,	5,	3403.89,	3.885037e-12,	3403.75,	2.242541e-10,	3403.67,	4.446816e-09,	3403.6,	4.804498e-08,	3403.82,	2.095407e-10,	3403.97,	4.251171e-11,	3403.52,	2.502256e-09
1331.66,	0.3655731,	0.0006858225,	5,	3435.4,	3.690936e-12,	3435.25,	2.209544e-10,	3435.18,	4.471183e-09,	3435.11,	4.817228e-08,	3435.33,	2.072719e-10,	3435.48,	4.237139e-11,	3435.03,	2.507351e-09
1340.63,	0.5448412,	0.001266419,	5,	3466.91,	3.961539e-12,	3466.76,	2.193391e-10,	3466.69,	4.454441e-09,	3466.61,	4.827052e-08,	3466.84,	2.085611e-10,	3466.99,	4.317646e-11,	3466.54,	3.592709e-09
1349.71,	0.7266154,	-0.0007322686,	5,	3498.42,	3.740066e-12,	3498.27,	2.217324e-10,	3498.2,	4.493869e-09,	3498.12,	4.860057e-08,	3498.35,	2.105968e-10,	3498.49,	4.288849e-11,	3498.05,	7.634812e-09
1359.01,	0.9125425,	0.004638918,	5,	3529.93,	3.825223e-12,	3529.78,	2.214116e-10,	3529.71,	4.483589e-09,	3529.63,	4.845972e-08,	3529.86,	2.115446e-10,	3530,	4.36323e-11,	3529.56,	7.736957e-09
1368.02,	0.8839087,	1.62737e-06,	6,	3561.44,	4.000357e-12,	3561.29,	2.214539e-10,	3561.21,	4.476444e-09,	3561.14,	4.820139e-08,	3561.36,	2.103688e-10,	3561.51,	4.298616e-11,	3561.07,	7.75138e-09
1377.13,	0.8735401,	2.237697e-06,	6,	3592.95,	3.59877e-12,	3592.8,	2.223305e-10,	3592.72,	4.459848e-09,	3592.65,	4.789218e-08,	3592.87,	2.08618e-10,	3593.02,	4.293878e-11,	3592.58,	7.744654e-09
1386.23,	0.8683826,	1.894388e-06,	6,	3624.46,	3.645612e-12,	3624.31,	2.226848e-10,	3624.23,	4.489872e-09,	3624.16,	4.846336e-08,	3624.38,	2.095919e-10,	3624.53,	4.362417e-11,	3624.09,	7.75395e-09
1395.36,	0.8653912,	1.665515e-06,	6,	3655.97,	4.130061e-12,	3655.82,	2.208208e-10,	3655.74,	4.474858e-09,	3655.67,	4.835785e-08,	3655.89,	2.125293e-10,	3656.04,	4.302524e-11,	3655.59,	7.794873e-09
1404.61,	0.8635765,	1.398497e-06,	6,	3687.48,	3.796429e-12,	3687.33,	2.207063e-10,	3687.25,	4.488377e-09,	3687.18,	4.815048e-08,	3687.4,	2.097621e-10,	3687.55,	4.281808e-11,	3687.1,	7.766817e-09
1413.89,	0.8624113,	1.856242e-06,	6,	3718.98,	3.958423e-12,	3718.84,	2.188291e-10,	3718.76,	4.529525e-09,	3718.69,	4.829235e-08,	3718.91,	2.090215e-10,	3719.06,	4.343963e-11,	3718.61,	7.790043e-09
1422.99,	0.8618535,	1.779952e-06,	6,	3750.49,	3.911917e-12,	3750.34,	2.226536e-10,	3750.27,	4.501359e-09,	3750.19,	4.851428e-08,	3750.42,	2.1031e-10,	3750.57,	4.240988e-11,	3750.12,	7.765639e-09
1432.14,	0.8616129,	1.703661e-06,	6,	3782,	3.910602e-12,	3781.85,	2.207632e-10,	3781.78,	4.436901e-09,	3781.7,	4.858554e-08,	3781.93,	2.071962e-10,	3782.08,	4.220631e-11,	3781.63,	2.697208e-09
1441.125,	0.8616855,	2.12326e-06,	6,	3813.51,	3.95914e-12,	3813.36,	2.198658e-10,	3813.29,	4.411915e-09,	3813.21,	4.815044e-08,	3813.44,	2.079377e-10,	3813.59,	4.257651e-11,	3813.14,	2.555843e-09
1450.28,	0.8619338,	1.703661e-06,	6,	3845.02,	3.760423e-12,	3844.87,	2.214306e-10,	3844.8,	4.468969e-09,	3844.72,	4.831781e-08,	3844.95,	2.094898e-10,	3845.1,	4.226124e-11,	3844.65,	2.521809e-09
1459.52,	0.8623617,	1.818097e-06,	6,	3876.53,	3.875623e-12,	3876.38,	2.209851e-10,	3876.31,	4.467894e-09,	3876.23,	4.802674e-08,	3876.45,	2.078421e-10,	3876.6,	4.262977e-11,	3876.16,	2.529052e-09
1468.57,	0.8629003,	1.551079e-06,	6,	3908.04,	3.891546e-12,	3907.89,	2.223623e-10,	3907.82,	4.404352e-09,	3907.74,	4.785939e-08,	3907.96,	2.089365e-10,	3908.11,	4.249491e-11,	3907.67,	2.511182e-09
1477.62,	0.8633779,	2.275842e-06,	6,	3939.55,	3.916431e-12,	3939.4,	2.190339e-10,	3939.33,	4.411389e-09,	3939.25,	4.815409e-08,	3939.47,	2.082829e-10,	3939.62,	4.228546e-11,	3939.18,	2.509597e-09
1486.68,	0.8641152,	1.741806e-06,	6,	3971.06,	3.70229e-12,	3970.91,	2.18514e-10,	3970.83,	4.427323e-09,	3970.76,	4.790672e-08,	3970.98,	2.060993e-10,	3971.13,	4.14923e-11,	3970.68,	2.513701e-09
1495.83,	0.8648028,	2.085115e-06,	6,	4002.57,	3.949493e-12,	4002.42,	2.225224e-10,	4002.34,	4.425406e-09,	4002.27,	4.865247e-08,	4002.49,	2.122446e-10,	4002.64,	4.29248e-11,	4002.19,	2.528351e-09
1505.12,	0.8656014,	2.123261e-06,	6,	4034.08,	3.842442e-12,	4033.93,	2.196425e-10,	4033.85,	4.427659e-09,	4033.78,	4.832509e-08,	4034.0,	2.087856e-10,	4034.15,	4.284065e-11,	4033.7,	2.514372e-09
1514.19,	0.8663883,	2.04697e-06,	6,	4065.59,	3.958925e-12,	4065.44,	2.189415e-10,	4065.36,	4.438268e-09,	4065.29,	4.808499e-08,	4065.51,	2.071331e-10,	4065.66,	4.233121e-11,	4065.21,	3.849444e-09
1523.36,	0.8672097,	1.894388e-06,	6,	4097.09,	3.72061e-12,	4096.94,	2.196026e-10,	4096.87,	4.46015e-09,	4096.8,	4.802681e-08,	4097.02,	2.077533e-10,	4097.17,	4.19611e-11,	4096.72,	9.317016e-09
1532.46,	0.8680006,	2.046969e-06,	6,	4128.6,	3.788589e-12,	4128.45,	2.202473e-10,	4128.38,	4.500611e-09,	4128.31,	4.821592e-08,	4128.53,	2.088379e-10,	4128.68,	4.241184e-11,	4128.23,	9.407262e-09
1541.65,	0.8688143,	1.970679e-06,	6,	4160.11,	3.866515e-12,	4159.96,	2.202727e-10,	4159.89,	4.472211e-09,	4159.81,	4.81796e-08,	4160.04,	2.098916e-10,	4160.19,	4.255803e-11,	4159.74,	9.408344e-09
1550.82,	0.8696281,	2.199551e-06,	6,	4191.62,	3.80491e-12,	4191.47,	2.203092e-10,	4191.4,	4.509091e-09,	4191.32,	4.826323e-08,	4191.55,	2.093054e-10,	4191.69,	4.267083e-11,	4191.25,	9.462853e-09
1559.95,	0.8704227,	2.46657e-06,	6,	4223.13,	3.90879e-12,	4222.98,	2.209864e-10,	4222.91,	4.486254e-09,	4222.83,	4.816138e-08,	4223.06,	2.089585e-10,	4223.2,	4.214398e-11,	4222.76,	9.451075e-09
1569.13,	0.8711523,	2.085115e-06,	6,	4254.64,	3.642749e-12,	4254.49,	2.180252e-10,	4254.41,	4.430122e-09,	4254.34,	4.791035e-08,	4254.56,	2.089976e-10,	4254.71,	4.214015e-11,	4254.27,	9.397436e-09
1578.36,	0.8719699,	2.390279e-06,	6,	4286.15,	3.841267e-12,	4286,	2.205811e-10,	4285.92,	4.474328e-09,	4285.85,	4.778666e-08,	4286.07,	2.064216e-10,	4286.22,	4.144159e-11,	4285.78,	9.465147e-09
1587.55,	0.8726996,	1.322206e-06,	6,	4317.66,	3.68206e-12,	4317.51,	2.192292e-10,	4317.43,	4.492828e-09,	4317.36,	4.807044e-08,	4317.58,	2.076621e-10,	4317.73,	4.283018e-11,	4317.29,	9.470528e-09
1596.67,	0.8734293,	2.046969e-06,	6,	4349.17,	3.484539e-12,	4349.02,	2.208215e-10,	4348.94,	4.448485e-09,	4348.87,	4.823051e-08,	4349.09,	2.075111e-10,	4349.24,	4.233403e-11,	4348.79,	9.5158e-09
1605.87,	0.8741629,	1.703661e-06,	6,	4380.67,	3.977991e-12,	4380.53,	2.164648e-10,	4380.45,	4.429839e-09,	4380.38,	4.778668e-08,	4380.6,	2.049397e-10,	4380.75,	4.193108e-11,	4380.3,	2.805109e-09
1615.09,	0.8748085,	2.123261e-06,	6,	4412.18,	3.972466e-12,	4412.04,	2.200186e-10,	4411.96,	4.441426e-09,	4411.89,	4.813593e-08,	4412.11,	2.061986e-10,	4412.26,	4.217993e-11,	4411.81,	2.602181e-09
1624.23,	0.8754389,	1.932533e-06,	6,	4443.69,	3.511548e-12,	4443.54,	2.193613e-10,	4443.47,	4.438354e-09,	4443.39,	4.792854e-08,	4443.62,	2.061717e-10,	4443.77,	4.146182e-11,	4443.32,	2.546392e-09
1633.37,	0.8760577,	1.970679e-06,	6,	4475.2,	3.733543e-12,	4475.05,	2.19418e-10,	4474.98,	4.411846e-09,	4474.9,	4.790673e-08,	4475.13,	2.048569e-10,	4475.28,	4.112686e-11,	4474.83,	2.52447e-09
1642.57,	0.8766575,	1.589224e-06,	6,	4506.71,	4.118468e-12,	4506.56,	2.179938e-10,	4506.49,	4.420743e-09,	4506.41,	4.783761e-08,	4506.64,	2.079398e-10,	4506.79,	4.216664e-11,	4506.34,	2.52356e-09
1651.7,	0.8772039,	2.04697e-06,	6,	4538.22,	4.10031e-12,	4538.07,	2.171326e-10,	4538,	4.398884e-09,	4537.92,	4.756108e-08,	4538.15,	2.077171e-10,	4538.3,	4.108689e-11,	4537.85,	2.524361e-09
1660.93,	0.8211129,	-0.002498502,	6,	4569.73,	3.748553e-12,	4569.58,	2.185986e-10,	4569.51,	4.418926e-09,	4569.43,	4.783758e-08,	4569.66,	2.052226e-10,	4569.81,	4.096846e-11,	4569.36,	2.514704e-09
1670.11,	0.358811,	-0.002497739,	6,	4601.24,	3.580821e-12,	4601.09,	2.19419e-10,	4601.02,	4.390317e-09,	4600.94,	4.792856e-08,	4601.16,	2.044885e-10,	4601.31,	4.223752e-11,	4600.87,	2.514875e-09
1679.33,	0.2354544,	-0.002498159,	6,	4632.75,	3.791496e-12,	4632.6,	2.167607e-10,	4632.52,	4.387754e-09,	4632.45,	4.715729e-08,	4632.67,	2.026935e-10,	4632.82,	4.140649e-11,	4632.375,	2.501332e-09
1688.43,	0.1700722,	-0.002497816,	6,	4664.26,	3.742271e-12,	4664.11,	2.163322e-10,	4664.03,	4.364249e-09,	4663.96,	4.767751e-08,	4664.18,	2.055794e-10,	4664.33,	4.188606e-11,	4663.88,	2.502292e-09
1697.71,	0.1298511,	-0.002498502,	6,	4695.77,	3.581193e-12,	4695.62,	2.163068e-10,	4695.54,	4.41307e-09,	4695.47,	4.789578e-08,	4695.69,	2.066774e-10,	4695.84,	4.216536e-11,	4695.39,	2.516461e-09
1706.82,	0.1012326,	-0.002498044,	6,	4727.28,	3.972169e-12,	4727.13,	2.154445e-10,	4727.05,	4.299155e-09,	4726.98,	4.726639e-08,	4727.2,	2.055348e-10,	4727.35,	4.140416e-11,	4726.9,	2.498604e-09
1716.06,	0.0734927,	-0.002498121,	6,	,	,	,	,	,	,	,	,	,	,	,	,	,
1725.25,	0.05681669,	-0.00249793,	6,	,	,	,	,	,	,	,	,	,	,	,	,	,
1734.38,	0.05106318,	-0.002498273,	6,	,	,	,	,	,	,	,	,	,	,	,	,	,
1743.46,	0.04906511,	-0.002497892,	6,	,	,	,	,	,	,	,	,	,	,	,	,	,
1752.73,	0.04814058,	-0.002497625,	6,	,	,	,	,	,	,	,	,	,	,	,	,	,
1762,	0.04762864,	-0.002497854,	6,	,	,	,	,	,	,	,	,	,	,	,	,	,
1771.03,	0.04735357,	-0.002497663,	6,	,	,	,	,	,	,	,	,	,	,	,	,	,
1780.17,	0.04708615,	-0.002497663,	6,	,	,	,	,	,	,	,	,	,	,	,	,	,
1789.2,	0.04699064,	-0.002498044,	6,	,	,	,	,	,	,	,	,	,	,	,	,	,
1798.38,	0.04682254,	-0.002497816,	6,	,	,	,	,	,	,	,	,	,	,	,	,	,
1807.5,	0.04672703,	-0.002497892,	6,	,	,	,	,	,	,	,	,	,	,	,	,	,
1816.56,	0.04660478,	-0.002498235,	6,	,	,	,	,	,	,	,	,	,	,	,	,	,
1825.8,	0.04654747,	-0.002498083,	6,	,	,	,	,	,	,	,	,	,	,	,	,	,
1834.92,	0.04650545,	-0.002498006,	6,	,	,	,	,	,	,	,	,	,	,	,	,	,
1844,	0.0464405,	-0.002497625,	6,	,	,	,	,	,	,	,	,	,	,	,	,	,
1853.08,	0.0463641,	-0.002497853,	6,	,	,	,	,	,	,	,	,	,	,	,	,	,
1862.25,	0.04636791,	-0.002497625,	6,	,	,	,	,	,	,	,	,	,	,	,	,	,
1871.43,	0.0462915,	-0.002497625,	6,	,	,	,	,	,	,	,	,	,	,	,	,	,
1880.49,	0.04631825,	-0.00249793,	6,	,	,	,	,	,	,	,	,	,	,	,	,	,
1889.64,	0.04623802,	-0.002497243,	6,	,	,	,	,	,	,	,	,	,	,	,	,	,
1898.64,	0.04624184,	-0.002497892,	6,	,	,	,	,	,	,	,	,	,	,	,	,	,
1907.68,	0.04614633,	-0.002497777,	6,	,	,	,	,	,	,	,	,	,	,	,	,	,
1916.71,	0.04616543,	-0.002497739,	6,	,	,	,	,	,	,	,	,	,	,	,	,	,
1925.84,	0.04609667,	-0.002497701,	6,	,	,	,	,	,	,	,	,	,	,	,	,	,
1934.89,	0.04609667,	-0.00249793,	6,	,	,	,	,	,	,	,	,	,	,	,	,	,
1943.97,	0.04607756,	-0.002498159,	6,	,	,	,	,	,	,	,	,	,	,	,	,	,
1953.15,	0.04611195,	-0.002497892,	6,	,	,	,	,	,	,	,	,	,	,	,	,	,
1962.38,	0.05512807,	1.894388e-06,	6,	,	,	,	,	,	,	,	,	,	,	,	,	,
1971.54,	0.0726866,	1.970679e-06,	6,	,	,	,	,	,	,	,	,	,	,	,	,	,
1980.64,	0.0826922,	1.894388e-06,	6,	,	,	,	,	,	,	,	,	,	,	,	,	,
1989.78,	0.09043614,	1.436643e-06,	6,	,	,	,	,	,	,	,	,	,	,	,	,	,
1998.97,	0.09709126,	2.008824e-06,	6,	,	,	,	,	,	,	,	,	,	,	,	,	,
2008.11,	0.1029097,	2.008824e-06,	6,	,	,	,	,	,	,	,	,	,	,	,	,	,
2017.18,	0.1083499,	2.313988e-06,	6,	,	,	,	,	,	,	,	,	,	,	,	,	,
2026.32,	0.1135189,	2.237697e-06,	6,	,	,	,	,	,	,	,	,	,	,	,	,	,
2035.48,	0.1183938,	2.008824e-06,	6,	,	,	,	,	,	,	,	,	,	,	,	,	,
2044.74,	0.1231616,	1.970679e-06,	6,	,	,	,	,	,	,	,	,	,	,	,	,	,
2053.88,	0.1277805,	1.665515e-06,	6,	,	,	,	,	,	,	,	,	,	,	,	,	,
2063.11,	0.1324375,	1.741806e-06,	6,	,	,	,	,	,	,	,	,	,	,	,	,	,
2072.25,	0.1371634,	1.436642e-06,	6,	,	,	,	,	,	,	,	,	,	,	,	,	,
2081.4,	0.1419274,	1.474788e-06,	6,	,	,	,	,	,	,	,	,	,	,	,	,	,
2090.58,	0.1468175,	2.313988e-06,	6,	,	,	,	,	,	,	,	,	,	,	,	,	,
2099.58,	0.151826,	1.703661e-06,	6,	,	,	,	,	,	,	,	,	,	,	,	,	,
2108.77,	0.1570791,	2.04697e-06,	6,	,	,	,	,	,	,	,	,	,	,	,	,	,
2117.76,	0.1624047,	2.008824e-06,	6,	,	,	,	,	,	,	,	,	,	,	,	,	,
2126.77,	0.167864,	1.779952e-06,	6,	,	,	,	,	,	,	,	,	,	,	,	,	,
2135.94,	0.1736175,	2.04697e-06,	6,	,	,	,	,	,	,	,	,	,	,	,	,	,
2145.13,	0.179501,	2.313988e-06,	6,	,	,	,	,	,	,	,	,	,	,	,	,	,
2154.36,	0.1856403,	2.008824e-06,	6,	,	,	,	,	,	,	,	,	,	,	,	,	,
2163.46,	0.191772,	1.818097e-06,	6,	,	,	,	,	,	,	,	,	,	,	,	,	,
2172.6,	0.1980566,	2.428424e-06,	6,	,	,	,	,	,	,	,	,	,	,	,	,	,
2181.66,	0.2044519,	1.741806e-06,	6,	,	,	,	,	,	,	,	,	,	,	,	,	,
2190.93,	0.2111949,	1.970679e-06,	6,	,	,	,	,	,	,	,	,	,	,	,	,	,
2200.06,	0.2178844,	1.62737e-06,	6,	,	,	,	,	,	,	,	,	,	,	,	,	,
2209.15,	0.2245166,	1.894388e-06,	6,	,	,	,	,	,	,	,	,	,	,	,	,	,
2218.18,	0.2310686,	1.703661e-06,	6,	,	,	,	,	,	,	,	,	,	,	,	,	,
2227.29,	0.2374868,	1.62737e-06,	6,	,	,	,	,	,	,	,	,	,	,	,	,	,
2236.51,	0.2437828,	2.313988e-06,	6,	,	,	,	,	,	,	,	,	,	,	,	,	,
2245.73,	0.2498764,	2.008824e-06,	6,	,	,	,	,	,	,	,	,	,	,	,	,	,
2254.74,	0.2556108,	2.046969e-06,	6,	,	,	,	,	,	,	,	,	,	,	,	,	,
2263.83,	0.1711801,	-0.004998327,	6,	,	,	,	,	,	,	,	,	,	,	,	,	,
2272.98,	0.07529975,	-0.004997983,	6,	,	,	,	,	,	,	,	,	,	,	,	,	,
2282.16,	0.04066025,	-0.004998136,	6,	,	,	,	,	,	,	,	,	,	,	,	,	,
2291.29,	0.03760011,	-0.004997869,	6,	,	,	,	,	,	,	,	,	,	,	,	,	,
2300.39,	0.03685514,	-0.004998059,	6,	,	,	,	,	,	,	,	,	,	,	,	,	,
2309.55,	0.03670996,	-0.004998327,	6,	,	,	,	,	,	,	,	,	,	,	,	,	,
2318.77,	0.03651894,	-0.004998059,	6,	,	,	,	,	,	,	,	,	,	,	,	,	,
2327.98,	0.03643107,	-0.004998136,	6,	,	,	,	,	,	,	,	,	,	,	,	,	,
2337.15,	0.03643871,	-0.004998555,	6,	,	,	,	,	,	,	,	,	,	,	,	,	,
2346.32,	0.03636231,	-0.004998212,	6,	,	,	,	,	,	,	,	,	,	,	,	,	,
2355.375,	0.03632411,	-0.004997983,	6,	,	,	,	,	,	,	,	,	,	,	,	,	,
2364.6,	0.03626298,	-0.004997869,	6,	,	,	,	,	,	,	,	,	,	,	,	,	,
2373.72,	0.03625152,	-0.004998784,	6,	,	,	,	,	,	,	,	,	,	,	,	,	,
2382.81,	0.03632028,	-0.004998212,	6,	,	,	,	,	,	,	,	,	,	,	,	,	,
2392.05,	0.0362859,	-0.004998059,	6,	,	,	,	,	,	,	,	,	,	,	,	,	,
2401.15,	0.03627062,	-0.004998479,	6,	,	,	,	,	,	,	,	,	,	,	,	,	,
2410.4,	0.03624387,	-0.004998517,	6,	,	,	,	,	,	,	,	,	,	,	,	,	,
2419.4,	0.03618275,	-0.004997869,	6,	,	,	,	,	,	,	,	,	,	,	,	,	,
2428.43,	0.03623242,	-0.004997945,	6,	,	,	,	,	,	,	,	,	,	,	,	,	,
2437.53,	0.03615219,	-0.004998289,	6,	,	,	,	,	,	,	,	,	,	,	,	,	,
2446.7,	0.03618657,	-0.004998135,	6,	,	,	,	,	,	,	,	,	,	,	,	,	,
2455.87,	0.03613308,	-0.004998288,	6,	,	,	,	,	,	,	,	,	,	,	,	,	,
2465.03,	0.0362477,	-0.004997793,	6,	,	,	,	,	,	,	,	,	,	,	,	,	,
2474.08,	0.03615218,	-0.004998402,	6,	,	,	,	,	,	,	,	,	,	,	,	,	,
2483.26,	0.03614454,	-0.004997716,	6,	,	,	,	,	,	,	,	,	,	,	,	,	,
2492.52,	0.0361369,	-0.004998212,	6,	,	,	,	,	,	,	,	,	,	,	,	,	,
2501.71,	0.03609106,	-0.004997945,	6,	,	,	,	,	,	,	,	,	,	,	,	,	,
2510.87,	0.03606432,	-0.004997754,	6,	,	,	,	,	,	,	,	,	,	,	,	,	,
2520.07,	0.0360796,	-0.004997945,	6,	,	,	,	,	,	,	,	,	,	,	,	,	,
2529.1,	0.0360796,	-0.004997754,	6,	,	,	,	,	,	,	,	,	,	,	,	,	,
2538.16,	0.03607196,	-0.004997907,	6,	,	,	,	,	,	,	,	,	,	,	,	,	,
2547.44,	0.0360796,	-0.004998479,	6,	,	,	,	,	,	,	,	,	,	,	,	,	,
2556.6,	0.03610252,	-0.004997602,	6,	,	,	,	,	,	,	,	,	,	,	,	,	,
2565.73,	0.05735918,	1.703661e-06,	6,	,	,	,	,	,	,	,	,	,	,	,	,	,
2574.87,	0.0717888,	1.970679e-06,	6,	,	,	,	,	,	,	,	,	,	,	,	,	,
2583.93,	0.080144,	2.085115e-06,	6,	,	,	,	,	,	,	,	,	,	,	,	,	,
2593.03,	0.08659665,	1.703661e-06,	6,	,	,	,	,	,	,	,	,	,	,	,	,	,
2602.21,	0.09217823,	1.856243e-06,	6,	,	,	,	,	,	,	,	,	,	,	,	,	,
2611.39,	0.09720205,	1.665515e-06,	6,	,	,	,	,	,	,	,	,	,	,	,	,	,
2620.56,	0.1018706,	2.008824e-06,	6,	,	,	,	,	,	,	,	,	,	,	,	,	,
2629.59,	0.1062029,	1.741806e-06,	6,	,	,	,	,	,	,	,	,	,	,	,	,	,
2638.71,	0.1103862,	1.970679e-06,	6,	,	,	,	,	,	,	,	,	,	,	,	,	,
2647.81,	0.1144779,	1.589224e-06,	6,	,	,	,	,	,	,	,	,	,	,	,	,	,
2657.03,	0.1184434,	2.237697e-06,	6,	,	,	,	,	,	,	,	,	,	,	,	,	,
2666.18,	0.1222753,	1.932533e-06,	6,	,	,	,	,	,	,	,	,	,	,	,	,	,
2675.19,	0.1260957,	1.818097e-06,	6,	,	,	,	,	,	,	,	,	,	,	,	,	,
2684.34,	0.1299008,	1.932533e-06,	6,	,	,	,	,	,	,	,	,	,	,	,	,	,
2693.41,	0.1336868,	1.970679e-06,	6,	,	,	,	,	,	,	,	,	,	,	,	,	,
2702.67,	0.1376371,	2.237697e-06,	6,	,	,	,	,	,	,	,	,	,	,	,	,	,
2711.71,	0.1415835,	1.779952e-06,	6,	,	,	,	,	,	,	,	,	,	,	,	,	,
2720.82,	0.14553,	2.123261e-06,	6,	,	,	,	,	,	,	,	,	,	,	,	,	,
2730.11,	0.1497019,	2.123261e-06,	6,	,	,	,	,	,	,	,	,	,	,	,	,	,
2739.21,	0.1539005,	1.779952e-06,	6,	,	,	,	,	,	,	,	,	,	,	,	,	,
2748.32,	0.1582175,	1.741806e-06,	6,	,	,	,	,	,	,	,	,	,	,	,	,	,
2757.41,	0.1626568,	1.970679e-06,	6,	,	,	,	,	,	,	,	,	,	,	,	,	,
2766.51,	0.1672948,	1.474788e-06,	6,	,	,	,	,	,	,	,	,	,	,	,	,	,
2775.65,	0.1719633,	2.428424e-06,	6,	,	,	,	,	,	,	,	,	,	,	,	,	,
2784.78,	0.1767541,	1.856243e-06,	6,	,	,	,	,	,	,	,	,	,	,	,	,	,
2794,	0.1817397,	1.703661e-06,	6,	,	,	,	,	,	,	,	,	,	,	,	,	,
2803.11,	0.1868132,	1.818097e-06,	6,	,	,	,	,	,	,	,	,	,	,	,	,	,
2812.32,	0.1920318,	1.551079e-06,	6,	,	,	,	,	,	,	,	,	,	,	,	,	,
2821.38,	0.1973307,	2.237697e-06,	6,	,	,	,	,	,	,	,	,	,	,	,	,	,
2830.58,	0.2028894,	1.970679e-06,	6,	,	,	,	,	,	,	,	,	,	,	,	,	,
2839.76,	0.2084824,	2.275842e-06,	6,	,	,	,	,	,	,	,	,	,	,	,	,	,
2848.91,	0.2143047,	2.237697e-06,	6,	,	,	,	,	,	,	,	,	,	,	,	,	,
2858.08,	0.2202072,	2.161406e-06,	6,	,	,	,	,	,	,	,	,	,	,	,	,	,
2867.29,	0.04253606,	-0.009997708,	6,	,	,	,	,	,	,	,	,	,	,	,	,	,
2876.35,	0.02864511,	-0.009997937,	6,	,	,	,	,	,	,	,	,	,	,	,	,	,
2885.36,	0.02786193,	-0.009998432,	6,	,	,	,	,	,	,	,	,	,	,	,	,	,
2894.58,	0.02765563,	-0.009997937,	6,	,	,	,	,	,	,	,	,	,	,	,	,	,
2903.69,	0.02759833,	-0.009997975,	6,	,	,	,	,	,	,	,	,	,	,	,	,	,
2912.89,	0.02771676,	-0.009998165,	6,	,	,	,	,	,	,	,	,	,	,	,	,	,
2922.04,	0.02762125,	-0.00999767,	6,	,	,	,	,	,	,	,	,	,	,	,	,	,
2931.14,	0.02767091,	-0.009998471,	6,	,	,	,	,	,	,	,	,	,	,	,	,	,
2940.37,	0.02763653,	-0.009998051,	6,	,	,	,	,	,	,	,	,	,	,	,	,	,
2949.55,	0.02760597,	-0.009997593,	6,	,	,	,	,	,	,	,	,	,	,	,	,	,
2958.58,	0.02758305,	-0.00999809,	6,	,	,	,	,	,	,	,	,	,	,	,	,	,
2967.75,	0.02756776,	-0.009997975,	6,	,	,	,	,	,	,	,	,	,	,	,	,	,
2976.85,	0.02755248,	-0.00999809,	6,	,	,	,	,	,	,	,	,	,	,	,	,	,
2985.98,	0.02758686,	-0.009997631,	6,	,	,	,	,	,	,	,	,	,	,	,	,	,
2995.17,	0.02759451,	-0.009998127,	6,	,	,	,	,	,	,	,	,	,	,	,	,	,
3004.25,	0.02757541,	-0.009998241,	6,	,	,	,	,	,	,	,	,	,	,	,	,	,
3013.33,	0.02752956,	-0.00999828,	6,	,	,	,	,	,	,	,	,	,	,	,	,	,
3022.54,	0.02756776,	-0.009998356,	6,	,	,	,	,	,	,	,	,	,	,	,	,	,
3031.63,	0.0275372,	-0.009998471,	6,	,	,	,	,	,	,	,	,	,	,	,	,	,
3040.59,	0.02752956,	-0.009998432,	6,	,	,	,	,	,	,	,	,	,	,	,	,	,
3049.74,	0.02753338,	-0.009998623,	6,	,	,	,	,	,	,	,	,	,	,	,	,	,
3058.93,	0.02750282,	-0.009997593,	6,	,	,	,	,	,	,	,	,	,	,	,	,	,
3068.05,	0.02750282,	-0.009998547,	6,	,	,	,	,	,	,	,	,	,	,	,	,	,
3077.2,	0.02749518,	-0.009998165,	6,	,	,	,	,	,	,	,	,	,	,	,	,	,
3086.17,	0.02747607,	-0.009998165,	6,	,	,	,	,	,	,	,	,	,	,	,	,	,
3095.35,	0.0275181,	-0.009998127,	6,	,	,	,	,	,	,	,	,	,	,	,	,	,
3104.39,	0.02749518,	-0.009998165,	6,	,	,	,	,	,	,	,	,	,	,	,	,	,
3113.41,	0.02750664,	-0.009998661,	6,	,	,	,	,	,	,	,	,	,	,	,	,	,
3122.44,	0.02745315,	-0.009998241,	6,	,	,	,	,	,	,	,	,	,	,	,	,	,
3131.68,	0.02750664,	-0.009997975,	6,	,	,	,	,	,	,	,	,	,	,	,	,	,
3140.87,	0.02748754,	-0.009998241,	6,	,	,	,	,	,	,	,	,	,	,	,	,	,
3149.79,	0.02746843,	-0.009997861,	6,	,	,	,	,	,	,	,	,	,	,	,	,	,
3158.88,	0.02749518,	-0.00999767,	6,	,	,	,	,	,	,	,	,	,	,	,	,	,
3167.96,	0.05692366,	2.237697e-06,	6,	,	,	,	,	,	,	,	,	,	,	,	,	,
3177.11,	0.07011165,	1.970679e-06,	6,	,	,	,	,	,	,	,	,	,	,	,	,	,
3186.17,	0.07782502,	2.123261e-06,	6,	,	,	,	,	,	,	,	,	,	,	,	,	,
3195.27,	0.08365494,	1.970679e-06,	6,	,	,	,	,	,	,	,	,	,	,	,	,	,
3204.35,	0.08863673,	1.932533e-06,	6,	,	,	,	,	,	,	,	,	,	,	,	,	,
3213.6,	0.09319828,	2.04697e-06,	6,	,	,	,	,	,	,	,	,	,	,	,	,	,
3222.79,	0.09738161,	1.932533e-06,	6,	,	,	,	,	,	,	,	,	,	,	,	,	,
3231.9,	0.101286,	1.856242e-06,	6,	,	,	,	,	,	,	,	,	,	,	,	,	,
3241.03,	0.1050377,	2.085115e-06,	6,	,	,	,	,	,	,	,	,	,	,	,	,	,
3250.03,	0.1086441,	1.970679e-06,	6,	,	,	,	,	,	,	,	,	,	,	,	,	,
3259.25,	0.1122582,	2.008824e-06,	6,	,	,	,	,	,	,	,	,	,	,	,	,	,
3268.57,	0.1158112,	2.046969e-06,	6,	,	,	,	,	,	,	,	,	,	,	,	,	,
3277.62,	0.1191655,	2.008824e-06,	6,	,	,	,	,	,	,	,	,	,	,	,	,	,
3286.65,	0.1225656,	1.894388e-06,	6,	,	,	,	,	,	,	,	,	,	,	,	,	,
3295.9,	0.1258855,	2.161406e-06,	6,	,	,	,	,	,	,	,	,	,	,	,	,	,
3305.05,	0.129236,	1.970679e-06,	6,	,	,	,	,	,	,	,	,	,	,	,	,	,
3314.19,	0.1326859,	1.894388e-06,	6,	,	,	,	,	,	,	,	,	,	,	,	,	,
3323.4,	0.1359829,	1.932533e-06,	6,	,	,	,	,	,	,	,	,	,	,	,	,	,
3332.61,	0.1394059,	2.352133e-06,	6,	,	,	,	,	,	,	,	,	,	,	,	,	,
3341.81,	0.1429589,	1.818097e-06,	6,	,	,	,	,	,	,	,	,	,	,	,	,	,
3351.03,	0.146508,	1.856243e-06,	6,	,	,	,	,	,	,	,	,	,	,	,	,	,
3360.14,	0.1501871,	2.313988e-06,	6,	,	,	,	,	,	,	,	,	,	,	,	,	,
3369.36,	0.1539158,	1.512933e-06,	6,	,	,	,	,	,	,	,	,	,	,	,	,	,
3378.6,	0.1577591,	1.818097e-06,	6,	,	,	,	,	,	,	,	,	,	,	,	,	,
3387.77,	0.1616635,	2.237697e-06,	6,	,	,	,	,	,	,	,	,	,	,	,	,	,
3397.11,	0.1657666,	2.046969e-06,	6,	,	,	,	,	,	,	,	,	,	,	,	,	,
3406.2,	0.1698353,	2.008824e-06,	6,	,	,	,	,	,	,	,	,	,	,	,	,	,
3415.29,	0.1739385,	1.779952e-06,	6,	,	,	,	,	,	,	,	,	,	,	,	,	,
3424.49,	0.1783013,	1.62737e-06,	6,	,	,	,	,	,	,	,	,	,	,	,	,	,
3433.65,	0.1826489,	1.589224e-06,	6,	,	,	,	,	,	,	,	,	,	,	,	,	,
3442.79,	0.1871532,	2.008824e-06,	6,	,	,	,	,	,	,	,	,	,	,	,	,	,
3451.95,	0.1917682,	2.581006e-06,	6,	,	,	,	,	,	,	,	,	,	,	,	,	,
3461.16,	0.1328883,	-0.01499793,	6,	,	,	,	,	,	,	,	,	,	,	,	,	,
3470.23,	0.0246337,	-0.0149977,	6,	,	,	,	,	,	,	,	,	,	,	,	,	,
3479.45,	0.02327364,	-0.01499785,	6,	,	,	,	,	,	,	,	,	,	,	,	,	,
3488.68,	0.02308644,	-0.01499789,	6,	,	,	,	,	,	,	,	,	,	,	,	,	,
3497.96,	0.02305206,	-0.01499793,	6,	,	,	,	,	,	,	,	,	,	,	,	,	,
3507.11,	0.02300622,	-0.01499793,	6,	,	,	,	,	,	,	,	,	,	,	,	,	,
3516.22,	0.02295273,	-0.01499758,	6,	,	,	,	,	,	,	,	,	,	,	,	,	,
3525.41,	0.02293363,	-0.01499785,	6,	,	,	,	,	,	,	,	,	,	,	,	,	,
3534.57,	0.02297565,	-0.01499755,	6,	,	,	,	,	,	,	,	,	,	,	,	,	,
3543.69,	0.02295273,	-0.01499808,	6,	,	,	,	,	,	,	,	,	,	,	,	,	,
3552.89,	0.02291071,	-0.01499789,	6,	,	,	,	,	,	,	,	,	,	,	,	,	,
3562.06,	0.02288778,	-0.01499816,	6,	,	,	,	,	,	,	,	,	,	,	,	,	,
3571.28,	0.02289542,	-0.01499808,	6,	,	,	,	,	,	,	,	,	,	,	,	,	,
3580.52,	0.02286486,	-0.01499781,	6,	,	,	,	,	,	,	,	,	,	,	,	,	,
3589.62,	0.02288396,	-0.01499785,	6,	,	,	,	,	,	,	,	,	,	,	,	,	,
3598.87,	0.02290307,	-0.01499797,	6,	,	,	,	,	,	,	,	,	,	,	,	,	,
3608.11,	0.02292217,	-0.01499789,	6,	,	,	,	,	,	,	,	,	,	,	,	,	,
3617.25,	0.02290307,	-0.01499743,	6,	,	,	,	,	,	,	,	,	,	,	,	,	,
3626.39,	0.0228534,	-0.01499835,	6,	,	,	,	,	,	,	,	,	,	,	,	,	,
3635.6,	0.02292599,	-0.01499751,	6,	,	,	,	,	,	,	,	,	,	,	,	,	,
3644.72,	0.02285722,	-0.01499743,	6,	,	,	,	,	,	,	,	,	,	,	,	,	,
3653.85,	0.02282284,	-0.01499739,	6,	,	,	,	,	,	,	,	,	,	,	,	,	,
3662.98,	0.02286104,	-0.01499774,	6,	,	,	,	,	,	,	,	,	,	,	,	,	,
3672.06,	0.0228343,	-0.01499804,	6,	,	,	,	,	,	,	,	,	,	,	,	,	,
3681.22,	0.02284958,	-0.01499774,	6,	,	,	,	,	,	,	,	,	,	,	,	,	,
3690.34,	0.0228725,	-0.01499793,	6,	,	,	,	,	,	,	,	,	,	,	,	,	,
3699.59,	0.02288014,	-0.0149982,	6,	,	,	,	,	,	,	,	,	,	,	,	,	,
3708.88,	0.02283812,	-0.0149977,	6,	,	,	,	,	,	,	,	,	,	,	,	,	,
3717.84,	0.02286868,	-0.01499808,	6,	,	,	,	,	,	,	,	,	,	,	,	,	,
3727,	0.02284194,	-0.01499781,	6,	,	,	,	,	,	,	,	,	,	,	,	,	,
3736.15,	0.02281902,	-0.01499789,	6,	,	,	,	,	,	,	,	,	,	,	,	,	,
3745.1,	0.02281902,	-0.01499797,	6,	,	,	,	,	,	,	,	,	,	,	,	,	,
3754.25,	0.02280756,	-0.01499797,	6,	,	,	,	,	,	,	,	,	,	,	,	,	,
3763.42,	0.04052654,	1.512933e-06,	6,	,	,	,	,	,	,	,	,	,	,	,	,	,
3772.51,	0.06203152,	1.665515e-06,	6,	,	,	,	,	,	,	,	,	,	,	,	,	,
3781.52,	0.07163981,	1.932533e-06,	6,	,	,	,	,	,	,	,	,	,	,	,	,	,
3790.72,	0.07807717,	2.085115e-06,	6,	,	,	,	,	,	,	,	,	,	,	,	,	,
3799.9,	0.0832347,	2.085115e-06,	6,	,	,	,	,	,	,	,	,	,	,	,	,	,
3808.88,	0.08753645,	2.008824e-06,	6,	,	,	,	,	,	,	,	,	,	,	,	,	,
3818.02,	0.09157079,	1.894388e-06,	6,	,	,	,	,	,	,	,	,	,	,	,	,	,
3827.13,	0.09528421,	1.512933e-06,	6,	,	,	,	,	,	,	,	,	,	,	,	,	,
3836.3,	0.09891741,	1.894388e-06,	6,	,	,	,	,	,	,	,	,	,	,	,	,	,
3845.4,	0.1022946,	1.703661e-06,	6,	,	,	,	,	,	,	,	,	,	,	,	,	,
3854.49,	0.1056069,	2.04697e-06,	6,	,	,	,	,	,	,	,	,	,	,	,	,	,
3863.65,	0.1089383,	1.703661e-06,	6,	,	,	,	,	,	,	,	,	,	,	,	,	,
3872.625,	0.1120863,	1.779952e-06,	6,	,	,	,	,	,	,	,	,	,	,	,	,	,
3881.8,	0.115284,	1.818097e-06,	6,	,	,	,	,	,	,	,	,	,	,	,	,	,
3890.87,	0.1183365,	1.703661e-06,	6,	,	,	,	,	,	,	,	,	,	,	,	,	,
3900.06,	0.1213928,	1.932533e-06,	6,	,	,	,	,	,	,	,	,	,	,	,	,	,
3909.17,	0.1245064,	1.856242e-06,	6,	,	,	,	,	,	,	,	,	,	,	,	,	,
3918.25,	0.1275054,	2.199551e-06,	6,	,	,	,	,	,	,	,	,	,	,	,	,	,
3927.45,	0.1305999,	1.62737e-06,	6,	,	,	,	,	,	,	,	,	,	,	,	,	,
3936.47,	0.1336066,	2.085115e-06,	6,	,	,	,	,	,	,	,	,	,	,	,	,	,
3945.68,	0.1367469,	2.46657e-06,	6,	,	,	,	,	,	,	,	,	,	,	,	,	,
3954.78,	0.1398911,	2.390279e-06,	6,	,	,	,	,	,	,	,	,	,	,	,	,	,
3963.98,	0.1431002,	1.474788e-06,	6,	,	,	,	,	,	,	,	,	,	,	,	,	,
3973.18,	0.1463361,	1.512933e-06,	6,	,	,	,	,	,	,	,	,	,	,	,	,	,
3982.26,	0.1496331,	1.932533e-06,	6,	,	,	,	,	,	,	,	,	,	,	,	,	,
3991.32,	0.1529951,	2.123261e-06,	6,	,	,	,	,	,	,	,	,	,	,	,	,	,
4000.47,	0.1564449,	2.008824e-06,	6,	,	,	,	,	,	,	,	,	,	,	,	,	,
4009.51,	0.1599214,	1.894388e-06,	6,	,	,	,	,	,	,	,	,	,	,	,	,	,
4018.69,	0.1635394,	1.245915e-06,	6,	,	,	,	,	,	,	,	,	,	,	,	,	,
4027.96,	0.1672757,	1.703661e-06,	6,	,	,	,	,	,	,	,	,	,	,	,	,	,
4037.03,	0.1710006,	2.123261e-06,	6,	,	,	,	,	,	,	,	,	,	,	,	,	,
4046.14,	0.1747751,	2.008824e-06,	6,	,	,	,	,	,	,	,	,	,	,	,	,	,
4055.33,	0.1787407,	1.703661e-06,	6,	,	,	,	,	,	,	,	,	,	,	,	,	,
4064.53,	0.02699088,	-0.01999781,	6,	,	,	,	,	,	,	,	,	,	,	,	,	,
4073.64,	0.02025935,	-0.0199983,	6,	,	,	,	,	,	,	,	,	,	,	,	,	,
4082.78,	0.0199117,	-0.01999796,	6,	,	,	,	,	,	,	,	,	,	,	,	,	,
4091.79,	0.01989642,	-0.01999743,	6,	,	,	,	,	,	,	,	,	,	,	,	,	,
4100.875,	0.01983911,	-0.01999819,	6,	,	,	,	,	,	,	,	,	,	,	,	,	,
4109.94,	0.01977417,	-0.0199983,	6,	,	,	,	,	,	,	,	,	,	,	,	,	,
4118.95,	0.01977417,	-0.01999803,	6,	,	,	,	,	,	,	,	,	,	,	,	,	,
4128.1,	0.01982001,	-0.01999826,	6,	,	,	,	,	,	,	,	,	,	,	,	,	,
4137.25,	0.01978563,	-0.01999796,	6,	,	,	,	,	,	,	,	,	,	,	,	,	,
4146.43,	0.01974742,	-0.01999788,	6,	,	,	,	,	,	,	,	,	,	,	,	,	,
4155.5,	0.01975506,	-0.01999807,	6,	,	,	,	,	,	,	,	,	,	,	,	,	,
4164.62,	0.01975124,	-0.01999784,	6,	,	,	,	,	,	,	,	,	,	,	,	,	,
4173.8,	0.01970158,	-0.019998,	6,	,	,	,	,	,	,	,	,	,	,	,	,	,
4182.88,	0.01977417,	-0.01999762,	6,	,	,	,	,	,	,	,	,	,	,	,	,	,
4191.99,	0.01978945,	-0.019998,	6,	,	,	,	,	,	,	,	,	,	,	,	,	,
4201.09,	0.01976652,	-0.01999781,	6,	,	,	,	,	,	,	,	,	,	,	,	,	,
4210.15,	0.01983147,	-0.01999834,	6,	,	,	,	,	,	,	,	,	,	,	,	,	,
4219.28,	0.01980855,	-0.01999838,	6,	,	,	,	,	,	,	,	,	,	,	,	,	,
4228.48,	0.01979327,	-0.01999815,	6,	,	,	,	,	,	,	,	,	,	,	,	,	,
4237.61,	0.01980855,	-0.0199983,	6,	,	,	,	,	,	,	,	,	,	,	,	,	,
4246.67,	0.01981237,	-0.01999803,	6,	,	,	,	,	,	,	,	,	,	,	,	,	,
4255.68,	0.01977417,	-0.01999788,	6,	,	,	,	,	,	,	,	,	,	,	,	,	,
4264.93,	0.01985057,	-0.01999872,	6,	,	,	,	,	,	,	,	,	,	,	,	,	,
4274.02,	0.01974742,	-0.0199983,	6,	,	,	,	,	,	,	,	,	,	,	,	,	,
4283.11,	0.01975506,	-0.01999803,	6,	,	,	,	,	,	,	,	,	,	,	,	,	,
4292.22,	0.01973596,	-0.01999788,	6,	,	,	,	,	,	,	,	,	,	,	,	,	,
4301.37,	0.01977034,	-0.01999842,	6,	,	,	,	,	,	,	,	,	,	,	,	,	,
4310.41,	0.01977798,	-0.01999765,	6,	,	,	,	,	,	,	,	,	,	,	,	,	,
4319.625,	0.01973596,	-0.01999792,	6,	,	,	,	,	,	,	,	,	,	,	,	,	,
4328.64,	0.01970922,	-0.01999758,	6,	,	,	,	,	,	,	,	,	,	,	,	,	,
4337.72,	0.0197627,	-0.01999838,	6,	,	,	,	,	,	,	,	,	,	,	,	,	,
4346.89,	0.01977034,	-0.01999868,	6,	,	,	,	,	,	,	,	,	,	,	,	,	,
4356.05,	0.01977034,	-0.01999784,	6,	,	,	,	,	,	,	,	,	,	,	,	,	,
4365.34,	0.0442667,	1.970679e-06,	6,	,	,	,	,	,	,	,	,	,	,	,	,	,
4374.52,	0.06164566,	1.512933e-06,	6,	,	,	,	,	,	,	,	,	,	,	,	,	,
4383.59,	0.07000468,	2.008824e-06,	6,	,	,	,	,	,	,	,	,	,	,	,	,	,
4392.72,	0.07578494,	1.818097e-06,	6,	,	,	,	,	,	,	,	,	,	,	,	,	,
4401.84,	0.08066357,	1.856242e-06,	6,	,	,	,	,	,	,	,	,	,	,	,	,	,
4410.91,	0.08482017,	1.474788e-06,	6,	,	,	,	,	,	,	,	,	,	,	,	,	,
4420.16,	0.08872842,	1.894388e-06,	6,	,	,	,	,	,	,	,	,	,	,	,	,	,
4429.33,	0.09231195,	2.619151e-06,	6,	,	,	,	,	,	,	,	,	,	,	,	,	,
4438.51,	0.09568918,	2.085115e-06,	6,	,	,	,	,	,	,	,	,	,	,	,	,	,
4447.67,	0.09886774,	2.008824e-06,	6,	,	,	,	,	,	,	,	,	,	,	,	,	,
4456.74,	0.1019966,	1.512933e-06,	6,	,	,	,	,	,	,	,	,	,	,	,	,	,
4465.86,	0.1050377,	1.932533e-06,	6,	,	,	,	,	,	,	,	,	,	,	,	,	,
4474.99,	0.1080099,	2.04697e-06,	6,	,	,	,	,	,	,	,	,	,	,	,	,	,
4483.99,	0.1109287,	2.237697e-06,	6,	,	,	,	,	,	,	,	,	,	,	,	,	,
4493.07,	0.1138131,	2.04697e-06,	6,	,	,	,	,	,	,	,	,	,	,	,	,	,
4502.23,	0.1167281,	2.085115e-06,	6,	,	,	,	,	,	,	,	,	,	,	,	,	,
4511.27,	0.1195361,	1.856243e-06,	6,	,	,	,	,	,	,	,	,	,	,	,	,	,
4520.47,	0.1224587,	2.085115e-06,	6,	,	,	,	,	,	,	,	,	,	,	,	,	,
4529.73,	0.1253125,	2.695442e-06,	6,	,	,	,	,	,	,	,	,	,	,	,	,	,
4538.92,	0.1281893,	1.818097e-06,	6,	,	,	,	,	,	,	,	,	,	,	,	,	,
4548.03,	0.1309781,	2.199551e-06,	6,	,	,	,	,	,	,	,	,	,	,	,	,	,
4557.06,	0.1338434,	2.085115e-06,	6,	,	,	,	,	,	,	,	,	,	,	,	,	,
4566.16,	0.1367049,	2.237697e-06,	6,	,	,	,	,	,	,	,	,	,	,	,	,	,
4575.21,	0.1395626,	1.932533e-06,	6,	,	,	,	,	,	,	,	,	,	,	,	,	,
4584.24,	0.1425654,	1.665515e-06,	6,	,	,	,	,	,	,	,	,	,	,	,	,	,
4593.24,	0.1454574,	1.741806e-06,	6,	,	,	,	,	,	,	,	,	,	,	,	,	,
4602.31,	0.1484946,	2.428424e-06,	6,	,	,	,	,	,	,	,	,	,	,	,	,	,
4611.47,	0.1516006,	1.62737e-06,	6,	,	,	,	,	,	,	,	,	,	,	,	,	,
4620.54,	0.1547945,	1.741806e-06,	6,	,	,	,	,	,	,	,	,	,	,	,	,	,
4629.67,	0.1580342,	1.932533e-06,	6,	,	,	,	,	,	,	,	,	,	,	,	,	,
4638.8,	0.1613808,	1.818097e-06,	6,	,	,	,	,	,	,	,	,	,	,	,	,	,
4647.99,	0.164716,	2.085115e-06,	6,	,	,	,	,	,	,	,	,	,	,	,	,	,
4657.17,	0.1681773,	2.390279e-06,	6,	,	,	,	,	,	,	,	,	,	,	,	,	,
4659.85,	0.1692241,	2.390279e-06,	6,	,	,	,	,	,	,	,	,	,	,	,	,	,