File: Quantification/development/HER + OER repeatability multiple MS/OERonPt_RnD1_2ndMS.csv
ixdat version = 0.2.2dev
name = 2022-03-30 12_51_35 OER on Pt repeatability.tsv
technique = EC-MS
tstamp = 1648637495.0
backend_name = BackendBase(none, address=none)
id = 1
timecol 'time/s' for: 'Ewe/V' and 'I/mA' and 'selector'
timecol 'M40-x' for: 'M40'
timecol 'M28-x' for: 'M28'
timecol 'M18-x' for: 'M18'
timecol 'M4-x' for: 'M4'
timecol 'M32-x' for: 'M32'
timecol 'M44-x' for: 'M44'
timecol 'M2-x' for: 'M2'
aliases = {"t": ["time/s"], "raw_potential": ["Ewe/V", "<Ewe>/V"], "raw_current": ["I/mA", "<I>/mA"], "cycle": ["cycle number"]}
N_header_lines = 18

time/s,	Ewe/V,	I/mA,	selector,	M40-x,	M40,	M28-x,	M28,	M18-x,	M18,	M4-x,	M4,	M32-x,	M32,	M44-x,	M44,	M2-x,	M2
97.0336,	0.8719344,	0.0001199297,	0,	0.920974,	3.406429e-12,	0.772048,	1.874691e-10,	0.697085,	3.288826e-09,	0.623122,	4.181314e-08,	0.846011,	1.168593e-10,	0.994937,	4.307108e-11,	0.548159,	8.507916e-10
104.877,	0.8719764,	-0.0002159461,	0,	32.4329,	3.147973e-12,	32.2839,	1.834635e-10,	32.2089,	3.157447e-09,	32.1349,	3.96795e-08,	32.3579,	1.119113e-10,	32.5069,	4.031187e-11,	32.0599,	8.402191e-10
113.52,	1.015314,	0.002783765,	0,	63.9436,	3.187277e-12,	63.7946,	1.811826e-10,	63.7196,	3.166201e-09,	63.6456,	3.967947e-08,	63.8686,	1.114982e-10,	64.0176,	4.079418e-11,	63.5706,	8.397297e-10
122.196,	1.188916,	0.00674067,	0,	95.4556,	3.392557e-12,	95.3066,	1.81074e-10,	95.2326,	3.15711e-09,	95.1576,	3.964314e-08,	95.3816,	1.118129e-10,	95.5306,	4.072722e-11,	95.0836,	8.397951e-10
130.835,	1.361617,	0.00893938,	0,	126.967,	3.367621e-12,	126.818,	1.80403e-10,	126.744,	3.144647e-09,	126.669,	3.954866e-08,	126.893,	1.129578e-10,	127.042,	4.52976e-11,	126.595,	8.378199e-10
139.546,	1.535907,	0.0110022,	0,	158.479,	3.226111e-12,	158.33,	1.857157e-10,	158.255,	3.093724e-09,	158.181,	3.879547e-08,	158.404,	3.56501e-10,	158.553,	6.667265e-11,	158.105,	8.209088e-10
148.221,	1.691535,	0.04083478,	0,	189.99,	3.34028e-12,	189.841,	1.836968e-10,	189.766,	3.125931e-09,	189.692,	3.915563e-08,	189.915,	1.505529e-10,	190.064,	5.669509e-11,	189.617,	8.287566e-10
156.817,	1.519376,	0.003360537,	0,	221.502,	3.153315e-12,	221.353,	1.793371e-10,	221.278,	3.136877e-09,	221.204,	3.936295e-08,	221.427,	1.130221e-10,	221.576,	5.411547e-11,	221.129,	8.356633e-10
165.299,	1.350026,	5.216674e-05,	0,	253.013,	3.094216e-12,	252.865,	1.809936e-10,	252.79,	3.129823e-09,	252.716,	3.948848e-08,	252.94,	1.103782e-10,	253.089,	4.865888e-11,	252.641,	8.488658e-10
173.962,	1.176592,	-0.0002963439,	0,	284.526,	3.148108e-12,	284.376,	1.814613e-10,	284.303,	3.139397e-09,	284.227,	3.936296e-08,	284.451,	1.112825e-10,	284.601,	4.951516e-11,	284.154,	8.370463e-10
182.55,	1.004884,	-0.001176591,	0,	316.037,	3.215586e-12,	315.888,	1.823534e-10,	315.813,	3.101176e-09,	315.739,	3.912654e-08,	315.962,	1.350053e-10,	316.111,	6.194068e-11,	315.664,	8.280664e-10
191.135,	0.8329816,	-0.004288375,	0,	347.548,	3.209931e-12,	347.399,	1.814784e-10,	347.324,	3.113065e-09,	347.25,	3.894098e-08,	347.473,	2.045574e-10,	347.622,	5.90803e-11,	347.175,	8.260229e-10
199.58,	0.6641623,	-0.009598104,	0,	379.059,	3.146885e-12,	378.91,	1.813141e-10,	378.835,	3.114643e-09,	378.761,	3.916653e-08,	378.984,	1.161664e-10,	379.133,	5.355167e-11,	378.686,	8.321719e-10
208.186,	0.4920193,	-0.0009273276,	0,	410.571,	3.280556e-12,	410.422,	1.80689e-10,	410.348,	3.115102e-09,	410.273,	3.924661e-08,	410.497,	1.099304e-10,	410.646,	4.878462e-11,	410.199,	1.090162e-09
216.681,	0.3220157,	-0.002738209,	0,	442.082,	3.244269e-12,	441.933,	1.798573e-10,	441.859,	3.119624e-09,	441.784,	3.921017e-08,	442.008,	1.089466e-10,	442.157,	4.583181e-11,	441.71,	8.328709e-10
225.326,	0.1492423,	-0.003147413,	0,	473.594,	3.40669e-12,	473.445,	1.794958e-10,	473.37,	3.117107e-09,	473.296,	3.901012e-08,	473.519,	1.114393e-10,	473.668,	5.305879e-11,	473.221,	8.319279e-10
233.871,	0.03265153,	0.02918888,	0,	505.106,	3.159334e-12,	504.957,	1.830418e-10,	504.882,	3.100578e-09,	504.808,	3.871908e-08,	505.031,	3.136624e-10,	505.18,	6.033081e-11,	504.733,	8.247404e-10
242.558,	0.2063495,	0.001279779,	0,	536.617,	3.25656e-12,	536.468,	1.790402e-10,	536.393,	3.110936e-09,	536.319,	3.901378e-08,	536.542,	1.427597e-10,	536.691,	5.273661e-11,	536.244,	8.250313e-10
251.196,	0.3792986,	0.003210521,	0,	568.129,	3.233111e-12,	567.98,	1.801479e-10,	567.906,	3.102026e-09,	567.831,	3.898099e-08,	568.055,	1.126185e-10,	568.204,	4.925393e-11,	567.757,	8.319537e-10
259.969,	0.5547272,	-0.0009025157,	0,	599.64,	3.122731e-12,	599.491,	1.771276e-10,	599.417,	3.125279e-09,	599.342,	3.917019e-08,	599.566,	1.105686e-10,	599.715,	4.517528e-11,	599.268,	8.385199e-10
268.654,	0.7283564,	0.0008724837,	0,	631.153,	3.062975e-12,	631.004,	1.788243e-10,	630.929,	3.096482e-09,	630.855,	3.907923e-08,	631.078,	1.100654e-10,	631.227,	4.813448e-11,	630.78,	8.343237e-10
277.346,	0.9023294,	0.00137979,	1,	662.663,	3.018424e-12,	662.514,	1.792422e-10,	662.439,	3.081359e-09,	662.365,	3.859537e-08,	662.588,	4.068138e-10,	662.737,	5.860817e-11,	662.29,	8.188567e-10
285.992,	1.075118,	0.01013531,	1,	694.175,	3.127297e-12,	694.026,	1.79844e-10,	693.951,	3.105931e-09,	693.877,	3.904826e-08,	694.1,	1.752185e-10,	694.249,	5.412399e-11,	693.802,	8.251302e-10
294.652,	1.248293,	0.005513058,	1,	725.686,	3.335874e-12,	725.537,	1.788979e-10,	725.463,	3.112067e-09,	725.388,	3.899918e-08,	725.612,	1.133134e-10,	725.761,	4.961847e-11,	725.314,	8.254979e-10
303.309,	1.421643,	0.008073638,	1,	757.199,	3.069971e-12,	757.05,	1.797162e-10,	756.976,	3.120558e-09,	756.901,	3.917384e-08,	757.125,	1.115033e-10,	757.274,	4.631324e-11,	756.827,	8.58833e-10
311.859,	1.592613,	0.01524311,	1,	788.71,	3.146871e-12,	788.561,	1.792621e-10,	788.486,	3.096144e-09,	788.412,	3.898462e-08,	788.635,	1.098978e-10,	788.784,	4.578894e-11,	788.337,	8.272574e-10
320.538,	1.634836,	0.008171739,	1,	820.222,	3.339951e-12,	820.073,	1.792368e-10,	819.998,	3.100738e-09,	819.924,	3.898458e-08,	820.147,	1.141274e-10,	820.296,	5.260222e-11,	819.849,	8.277745e-10
329.303,	1.45943,	-0.001163231,	1,	851.733,	3.133171e-12,	851.584,	1.79728e-10,	851.509,	3.101477e-09,	851.435,	3.884276e-08,	851.658,	2.427239e-10,	851.807,	5.517227e-11,	851.36,	8.232577e-10
338.015,	1.285179,	-0.0002257256,	1,	883.245,	3.212425e-12,	883.096,	1.779189e-10,	883.022,	3.100789e-09,	882.947,	3.876275e-08,	883.171,	1.198368e-10,	883.32,	5.082041e-11,	882.872,	8.279699e-10
346.57,	1.114124,	-0.003088628,	1,	914.755,	3.077355e-12,	914.606,	1.776219e-10,	914.532,	3.093871e-09,	914.457,	3.893733e-08,	914.681,	1.110607e-10,	914.83,	4.693791e-11,	914.383,	2.127454e-09
355.236,	0.9407052,	-0.0066016,	1,	946.268,	3.126045e-12,	946.119,	1.758394e-10,	946.044,	3.076043e-09,	945.97,	3.873358e-08,	946.193,	1.086746e-10,	946.342,	4.390158e-11,	945.895,	8.560539e-10
363.811,	0.7692422,	-0.01882657,	1,	977.78,	3.194799e-12,	977.631,	1.763382e-10,	977.556,	3.077572e-09,	977.482,	3.873362e-08,	977.705,	1.084783e-10,	977.854,	4.215819e-11,	977.407,	8.304736e-10
372.584,	0.5936914,	-0.001312483,	1,	1009.29,	3.072667e-12,	1009.14,	1.76206e-10,	1009.07,	3.081614e-09,	1008.99,	3.865727e-08,	1009.22,	1.080932e-10,	1009.37,	4.116552e-11,	1008.92,	8.230191e-10
381.155,	0.4224271,	-0.0009219834,	1,	1040.8,	3.265858e-12,	1040.65,	1.76167e-10,	1040.58,	3.086578e-09,	1040.5,	3.880091e-08,	1040.73,	1.093548e-10,	1040.88,	4.037539e-11,	1040.43,	8.284924e-10
389.795,	0.2494894,	-0.006212246,	1,	1072.31,	3.093896e-12,	1072.16,	1.747361e-10,	1072.09,	3.072091e-09,	1072.02,	3.866993e-08,	1072.24,	1.077598e-10,	1072.39,	3.930689e-11,	1071.94,	8.237305e-10
398.334,	0.07884008,	-0.00680582,	1,	1103.83,	3.349928e-12,	1103.68,	1.755141e-10,	1103.6,	3.05979e-09,	1103.53,	3.855356e-08,	1103.75,	1.079961e-10,	1103.9,	3.945163e-11,	1103.45,	8.210557e-10
406.862,	0.1028245,	0.01012729,	1,	1135.34,	3.191511e-12,	1135.19,	1.756312e-10,	1135.11,	3.082911e-09,	1135.04,	3.876275e-08,	1135.26,	1.086048e-10,	1135.41,	3.944164e-11,	1134.96,	8.218563e-10
415.488,	0.2752655,	0.003770886,	1,	1166.85,	3.226434e-12,	1166.7,	1.752681e-10,	1166.625,	3.073142e-09,	1166.55,	3.843531e-08,	1166.77,	1.085588e-10,	1166.92,	3.889655e-11,	1166.48,	8.190935e-10
424.152,	0.4485585,	0.0005468763,	1,	1198.36,	3.230313e-12,	1198.21,	1.742582e-10,	1198.14,	3.056701e-09,	1198.06,	3.849717e-08,	1198.29,	1.077267e-10,	1198.43,	3.901827e-11,	1197.99,	8.205377e-10
432.891,	0.6234179,	0.00112022,	1,	1229.87,	3.080793e-12,	1229.72,	1.723221e-10,	1229.65,	3.061227e-09,	1229.57,	3.868264e-08,	1229.8,	1.070019e-10,	1229.95,	4.021698e-11,	1229.5,	8.225878e-10
441.498,	0.7954998,	0.0006258924,	1,	1261.38,	3.060058e-12,	1261.23,	1.758364e-10,	1261.16,	3.07325e-09,	1261.09,	3.872274e-08,	1261.31,	1.081655e-10,	1261.46,	4.310737e-11,	1261.01,	8.205799e-10
450.195,	0.9693696,	0.003367026,	2,	1292.89,	3.088168e-12,	1292.75,	1.760381e-10,	1292.67,	3.042921e-09,	1292.6,	3.839531e-08,	1292.82,	1.105288e-10,	1292.97,	4.384477e-11,	1292.52,	8.218152e-10
458.779,	1.14123,	0.003527348,	2,	1324.41,	3.062695e-12,	1324.26,	1.717939e-10,	1324.18,	3.042382e-09,	1324.11,	3.844984e-08,	1324.33,	1.089344e-10,	1324.48,	4.446128e-11,	1324.03,	8.199823e-10
467.499,	1.315459,	0.006220767,	2,	1355.92,	3.017494e-12,	1355.77,	1.693436e-10,	1355.69,	3.046714e-09,	1355.62,	3.834248e-08,	1355.84,	1.075554e-10,	1355.99,	4.46839e-11,	1355.55,	8.145757e-10
476.278,	1.491182,	0.007402955,	2,	1387.43,	3.037956e-12,	1387.28,	1.699642e-10,	1387.21,	3.060006e-09,	1387.13,	3.856263e-08,	1387.36,	1.080267e-10,	1387.5,	4.440444e-11,	1387.06,	8.183069e-10
485.036,	1.666339,	0.04056605,	2,	1418.94,	2.977886e-12,	1418.79,	1.677593e-10,	1418.72,	3.043007e-09,	1418.64,	3.832797e-08,	1418.87,	1.084157e-10,	1419.01,	4.420352e-11,	1418.57,	8.170297e-10
493.644,	1.562294,	0.0001407259,	2,	1450.45,	2.914997e-12,	1450.3,	1.675399e-10,	1450.23,	3.033048e-09,	1450.15,	3.827519e-08,	1450.38,	1.076786e-10,	1450.53,	4.489648e-11,	1450.08,	8.180682e-10
502.16,	1.391886,	0.002521897,	2,	1481.96,	3.03779e-12,	1481.81,	1.662093e-10,	1481.74,	3.048359e-09,	1481.66,	3.822068e-08,	1481.89,	1.106472e-10,	1482.04,	4.425198e-11,	1481.59,	8.198622e-10
510.582,	1.223693,	-8.868805e-05,	2,	1513.47,	2.953544e-12,	1513.33,	1.650697e-10,	1513.25,	3.026493e-09,	1513.18,	3.816611e-08,	1513.4,	1.133646e-10,	1513.55,	4.335912e-11,	1513.1,	8.091331e-10
519.248,	1.050419,	-0.0008658707,	2,	1544.99,	2.947259e-12,	1544.84,	1.648822e-10,	1544.76,	3.038051e-09,	1544.69,	3.833528e-08,	1544.91,	1.088451e-10,	1545.06,	4.203293e-11,	1544.61,	8.19968e-10
527.738,	0.8803736,	-0.001362107,	2,	1576.5,	3.018185e-12,	1576.35,	1.642308e-10,	1576.27,	3.018016e-09,	1576.2,	3.812607e-08,	1576.42,	1.071485e-10,	1576.57,	4.099562e-11,	1576.125,	8.145136e-10
536.449,	0.7061523,	-0.01830515,	2,	1608.01,	3.007879e-12,	1607.86,	1.649023e-10,	1607.79,	3.035013e-09,	1607.71,	3.822431e-08,	1607.93,	1.083894e-10,	1608.08,	3.973686e-11,	1607.64,	8.129907e-10
545.267,	0.5298068,	-0.001484639,	2,	1639.52,	2.956006e-12,	1639.37,	1.642135e-10,	1639.3,	3.027853e-09,	1639.22,	3.836436e-08,	1639.45,	1.07492e-10,	1639.6,	3.920035e-11,	1639.15,	8.165205e-10
554.034,	0.3543935,	0.0002846344,	2,	1671.03,	3.028391e-12,	1670.88,	1.650612e-10,	1670.81,	3.021501e-09,	1670.73,	3.806425e-08,	1670.96,	1.07365e-10,	1671.11,	3.916358e-11,	1670.66,	8.113208e-10
562.685,	0.1814711,	-0.006235149,	2,	1702.54,	3.010605e-12,	1702.39,	1.632563e-10,	1702.32,	3.006964e-09,	1702.25,	3.802239e-08,	1702.47,	1.060057e-10,	1702.62,	3.823033e-11,	1702.17,	8.107489e-10
571.365,	0.007956519,	-0.1798602,	2,	1734.06,	2.90791e-12,	1733.91,	1.625023e-10,	1733.83,	3.013018e-09,	1733.76,	3.799145e-08,	1733.98,	1.062406e-10,	1734.13,	3.858561e-11,	1733.68,	8.080914e-10
579.846,	0.1726957,	0.004404542,	2,	1765.57,	2.744914e-12,	1765.42,	1.626439e-10,	1765.34,	2.997421e-09,	1765.27,	3.79369e-08,	1765.49,	1.064283e-10,	1765.64,	3.773483e-11,	1765.19,	8.096638e-10
588.425,	0.3441892,	0.0003762473,	2,	1797.08,	2.855449e-12,	1796.93,	1.638396e-10,	1796.86,	3.018216e-09,	1796.78,	3.816964e-08,	1797,	1.063622e-10,	1797.15,	3.782121e-11,	1796.71,	8.136125e-10
597.054,	0.5168939,	-7.532784e-05,	2,	1828.59,	2.882525e-12,	1828.44,	1.632612e-10,	1828.37,	2.989334e-09,	1828.29,	3.792053e-08,	1828.52,	1.507254e-10,	1828.66,	3.958161e-11,	1828.22,	8.052871e-10
605.729,	0.6905155,	0.004831306,	2,	1860.1,	2.728786e-12,	1859.95,	1.629849e-10,	1859.88,	2.964415e-09,	1859.8,	3.762767e-08,	1860.03,	2.216581e-10,	1860.18,	4.056841e-11,	1859.73,	7.96519e-10
614.339,	0.862731,	0.0005690161,	2,	1891.61,	2.778671e-12,	1891.46,	1.647671e-10,	1891.39,	2.986174e-09,	1891.32,	3.754762e-08,	1891.54,	2.370896e-10,	1891.69,	4.09162e-11,	1891.24,	8.006135e-10
622.942,	1.034809,	0.004360644,	3,	1923.13,	2.966888e-12,	1922.98,	1.643559e-10,	1922.9,	2.989132e-09,	1922.83,	3.760581e-08,	1923.05,	2.451873e-10,	1923.2,	4.040322e-11,	1922.75,	8.004933e-10
631.468,	1.205137,	0.005097746,	3,	1954.64,	3.123194e-12,	1954.49,	1.647212e-10,	1954.41,	2.986547e-09,	1954.34,	3.760221e-08,	1954.56,	2.479314e-10,	1954.71,	3.99245e-11,	1954.26,	7.965595e-10
640.11,	1.378178,	0.004915665,	3,	1986.15,	2.774703e-12,	1986,	1.654139e-10,	1985.92,	2.992044e-09,	1985.85,	3.760218e-08,	1986.07,	2.488652e-10,	1986.22,	3.973956e-11,	1985.78,	7.951319e-10
648.638,	1.548786,	0.01113962,	3,	2017.66,	2.861021e-12,	2017.51,	1.646439e-10,	2017.44,	2.987339e-09,	2017.36,	3.763495e-08,	2017.59,	2.505162e-10,	2017.73,	3.928619e-11,	2017.29,	7.996195e-10
657.106,	1.682835,	0.03501966,	3,	2049.17,	2.929994e-12,	2049.02,	1.639797e-10,	2048.95,	2.970842e-09,	2048.875,	3.755492e-08,	2049.1,	2.515773e-10,	2049.25,	3.992943e-11,	2048.8,	7.978184e-10
665.794,	1.509218,	0.000440758,	3,	2080.68,	2.945014e-12,	2080.53,	1.660862e-10,	2080.46,	2.991944e-09,	2080.38,	3.7755e-08,	2080.61,	2.531869e-10,	2080.76,	3.987093e-11,	2080.31,	8.022425e-10
674.453,	1.335887,	-0.000595231,	3,	2112.19,	2.956262e-12,	2112.05,	1.647696e-10,	2111.97,	2.966636e-09,	2111.9,	3.738757e-08,	2112.12,	2.519162e-10,	2112.27,	3.905238e-11,	2111.82,	7.927197e-10
683.129,	1.162303,	-0.005728606,	3,	2143.71,	3.03452e-12,	2143.56,	1.644907e-10,	2143.48,	2.987454e-09,	2143.41,	3.771132e-08,	2143.63,	1.395997e-10,	2143.78,	3.889205e-11,	2143.33,	8.031833e-10
691.803,	0.9889262,	-0.001226978,	3,	2175.22,	2.976825e-12,	2175.07,	1.634707e-10,	2174.99,	2.988298e-09,	2174.92,	3.744942e-08,	2175.14,	1.144667e-10,	2175.29,	3.844616e-11,	2174.85,	8.006475e-10
700.586,	0.8131653,	-0.006847046,	3,	2206.73,	3.130224e-12,	2206.58,	1.634016e-10,	2206.51,	2.979023e-09,	2206.43,	3.765314e-08,	2206.65,	1.111253e-10,	2206.8,	3.784236e-11,	2206.36,	8.071212e-10
709.283,	0.6392649,	-0.004679638,	3,	2238.24,	2.724077e-12,	2238.09,	1.615654e-10,	2238.02,	2.960568e-09,	2237.94,	3.751489e-08,	2238.17,	1.089278e-10,	2238.32,	3.784722e-11,	2237.87,	7.99127e-10
717.967,	0.4656624,	-0.0006902793,	3,	2269.75,	2.842614e-12,	2269.6,	1.631828e-10,	2269.53,	2.972272e-09,	2269.45,	3.748211e-08,	2269.68,	1.078197e-10,	2269.83,	3.736176e-11,	2269.38,	7.994941e-10
726.598,	0.2929272,	-0.001801849,	3,	2301.27,	2.861435e-12,	2301.12,	1.637254e-10,	2301.04,	2.98258e-09,	2300.97,	3.772769e-08,	2301.19,	1.071717e-10,	2301.34,	3.795766e-11,	2300.89,	8.038399e-10
735.169,	0.12151,	-0.01006113,	3,	2332.78,	2.86081e-12,	2332.63,	1.638945e-10,	2332.55,	2.985981e-09,	2332.48,	3.75767e-08,	2332.7,	1.070396e-10,	2332.85,	3.741241e-11,	2332.4,	8.015379e-10
743.764,	0.06143819,	0.01713072,	3,	2364.29,	2.905263e-12,	2364.14,	1.634797e-10,	2364.06,	2.978088e-09,	2363.99,	3.7675e-08,	2364.21,	1.081845e-10,	2364.36,	3.803045e-11,	2363.91,	8.016907e-10
752.437,	0.2347885,	0.003196397,	3,	2395.8,	2.871718e-12,	2395.65,	1.609785e-10,	2395.58,	2.962671e-09,	2395.5,	3.745491e-08,	2395.72,	1.068531e-10,	2395.87,	3.758726e-11,	2395.43,	8.028807e-10
761.078,	0.4077987,	0.0006774247,	3,	2427.31,	2.596744e-12,	2427.16,	1.634143e-10,	2427.09,	2.951643e-09,	2427.01,	3.734385e-08,	2427.23,	2.385334e-10,	2427.38,	3.753919e-11,	2426.94,	7.978476e-10
769.627,	0.5786658,	0.001851978,	3,	2458.82,	2.909998e-12,	2458.67,	1.637571e-10,	2458.6,	2.945868e-09,	2458.52,	3.716199e-08,	2458.75,	3.686669e-10,	2458.9,	3.872837e-11,	2458.45,	7.881577e-10
778.439,	0.7549005,	0.00634788,	3,	2490.33,	2.757218e-12,	2490.18,	1.641363e-10,	2490.11,	2.936568e-09,	2490.04,	3.713657e-08,	2490.26,	3.915334e-10,	2490.41,	3.962344e-11,	2489.96,	7.867826e-10
786.997,	0.9259853,	0.002724591,	4,	2521.84,	2.909549e-12,	2521.69,	1.618039e-10,	2521.62,	2.911561e-09,	2521.55,	3.69765e-08,	2521.77,	3.928728e-10,	2521.92,	3.913233e-11,	2521.47,	7.839518e-10
795.718,	1.100474,	0.004605709,	4,	2553.36,	2.956325e-12,	2553.21,	1.640642e-10,	2553.13,	2.92883e-09,	2553.06,	3.692555e-08,	2553.28,	3.982093e-10,	2553.43,	3.882322e-11,	2552.98,	7.828517e-10
804.364,	1.273473,	0.004929407,	4,	2584.87,	3.206526e-12,	2584.72,	1.637214e-10,	2584.64,	2.92377e-09,	2584.57,	3.688369e-08,	2584.79,	3.982598e-10,	2584.94,	3.968052e-11,	2584.49,	7.778523e-10
813.021,	1.446487,	0.007075821,	4,	2616.38,	2.823157e-12,	2616.23,	1.652166e-10,	2616.16,	2.942509e-09,	2616.08,	3.702913e-08,	2616.31,	4.021769e-10,	2616.45,	3.93535e-11,	2616.01,	7.842161e-10
821.624,	1.618703,	0.02033297,	4,	2647.89,	2.750052e-12,	2647.74,	1.629733e-10,	2647.67,	2.93445e-09,	2647.59,	3.703647e-08,	2647.82,	4.020565e-10,	2647.97,	3.915743e-11,	2647.52,	7.825195e-10
830.25,	1.609736,	0.003199833,	4,	2679.4,	2.948518e-12,	2679.25,	1.645588e-10,	2679.18,	2.9308e-09,	2679.11,	3.699831e-08,	2679.33,	4.016218e-10,	2679.48,	3.899777e-11,	2679.03,	7.844108e-10
838.994,	1.4348,	0.000473586,	4,	2710.91,	2.789814e-12,	2710.77,	1.63546e-10,	2710.69,	2.913673e-09,	2710.62,	3.680548e-08,	2710.84,	3.991293e-10,	2710.99,	3.954093e-11,	2710.54,	7.827408e-10
847.509,	1.26448,	0.0003327312,	4,	2742.43,	2.906289e-12,	2742.28,	1.622742e-10,	2742.2,	2.92996e-09,	2742.13,	3.700924e-08,	2742.35,	1.749097e-10,	2742.5,	3.833459e-11,	2742.05,	7.851232e-10
856.132,	1.092088,	-0.0009525211,	4,	2773.94,	2.766893e-12,	2773.79,	1.619999e-10,	2773.71,	2.943431e-09,	2773.64,	3.717652e-08,	2773.86,	1.234111e-10,	2774.01,	3.797758e-11,	2773.57,	7.8756e-10
864.733,	0.9199911,	-0.003002741,	4,	2805.45,	2.897845e-12,	2805.3,	1.623431e-10,	2805.23,	2.937856e-09,	2805.15,	3.724386e-08,	2805.375,	1.145087e-10,	2805.52,	3.830579e-11,	2805.08,	7.981521e-10
873.467,	0.7454488,	-0.02103139,	4,	2836.96,	3.07262e-12,	2836.81,	1.621298e-10,	2836.74,	2.937184e-09,	2836.66,	3.719837e-08,	2836.89,	1.113575e-10,	2837.04,	3.799032e-11,	2836.59,	7.989754e-10
882.176,	0.5711931,	-0.001812919,	4,	2868.47,	2.909409e-12,	2868.32,	1.60128e-10,	2868.25,	2.924957e-09,	2868.17,	3.6991e-08,	2868.4,	1.096662e-10,	2868.55,	3.743074e-11,	2868.1,	7.89554e-10
890.721,	0.4003452,	-0.000816247,	4,	2899.98,	2.771048e-12,	2899.83,	1.619432e-10,	2899.76,	2.94042e-09,	2899.68,	3.719653e-08,	2899.91,	1.101878e-10,	2900.06,	3.719467e-11,	2899.61,	7.922833e-10
899.272,	0.2291534,	-0.006052305,	4,	2931.49,	2.900558e-12,	2931.35,	1.616433e-10,	2931.27,	2.929413e-09,	2931.2,	3.723294e-08,	2931.42,	1.102772e-10,	2931.57,	3.684848e-11,	2931.12,	7.96072e-10
907.82,	0.0582558,	-0.01153533,	4,	2963.01,	2.969093e-12,	2962.86,	1.602725e-10,	2962.78,	2.93925e-09,	2962.71,	3.718198e-08,	2962.93,	1.083268e-10,	2963.08,	3.725658e-11,	2962.63,	7.941117e-10
916.608,	0.02824662,	1.320343e-06,	5,	2994.52,	3.040498e-12,	2994.37,	1.610627e-10,	2994.3,	2.93208e-09,	2994.22,	3.708013e-08,	2994.44,	1.076467e-10,	2994.59,	3.7354e-11,	2994.15,	7.887387e-10
925.142,	0.04415473,	1.355818e-06,	5,	3026.03,	2.909988e-12,	3025.88,	1.605311e-10,	3025.81,	2.893971e-09,	3025.73,	3.665633e-08,	3025.95,	2.92921e-10,	3026.1,	3.811982e-11,	3025.66,	7.725133e-10
933.712,	0.05912303,	1.464532e-06,	5,	3057.54,	2.876539e-12,	3057.39,	1.615013e-10,	3057.32,	2.875549e-09,	3057.24,	3.648897e-08,	3057.47,	4.949391e-10,	3057.62,	3.875392e-11,	3057.17,	7.723493e-10
942.32,	0.07276566,	1.363447e-06,	5,	3089.05,	2.90369e-12,	3088.9,	1.612969e-10,	3088.83,	2.869762e-09,	3088.75,	3.621614e-08,	3088.98,	5.27858e-10,	3089.13,	3.869244e-11,	3088.68,	7.653535e-10
950.95,	0.08452482,	1.334457e-06,	5,	3120.56,	2.786845e-12,	3120.41,	1.604181e-10,	3120.34,	2.872124e-09,	3120.27,	3.595052e-08,	3120.49,	5.369714e-10,	3120.64,	3.868825e-11,	3120.19,	7.639434e-10
959.414,	0.09452278,	1.374128e-06,	5,	3152.08,	2.876592e-12,	3151.93,	1.605261e-10,	3151.85,	2.857801e-09,	3151.78,	3.608518e-08,	3152,	5.375263e-10,	3152.15,	3.836914e-11,	3151.7,	7.605546e-10
967.898,	0.1032486,	1.430201e-06,	5,	3183.59,	2.962034e-12,	3183.44,	1.595186e-10,	3183.36,	2.860536e-09,	3183.29,	3.602329e-08,	3183.51,	5.453112e-10,	3183.66,	3.824732e-11,	3183.21,	7.641848e-10
976.659,	0.1113783,	1.507637e-06,	5,	3215.1,	2.829041e-12,	3214.95,	1.597715e-10,	3214.875,	2.86207e-09,	3214.8,	3.612881e-08,	3215.02,	5.386156e-10,	3215.17,	3.873848e-11,	3214.73,	7.682712e-10
985.208,	0.1185645,	1.261217e-06,	5,	3246.61,	2.704479e-12,	3246.46,	1.634637e-10,	3246.39,	2.86671e-09,	3246.31,	3.601601e-08,	3246.54,	5.425675e-10,	3246.69,	3.922017e-11,	3246.24,	7.666333e-10
993.935,	0.1254489,	1.415706e-06,	5,	3278.12,	2.843212e-12,	3277.97,	1.614846e-10,	3277.9,	2.870914e-09,	3277.82,	3.601244e-08,	3278.05,	5.432589e-10,	3278.2,	3.923108e-11,	3277.75,	7.629232e-10
1002.78,	0.1322109,	1.277238e-06,	5,	3309.63,	2.726887e-12,	3309.48,	1.605921e-10,	3309.41,	2.867472e-09,	3309.34,	3.602333e-08,	3309.56,	5.443744e-10,	3309.71,	3.89875e-11,	3309.26,	7.641993e-10
1011.36,	0.1386292,	1.448893e-06,	5,	3341.14,	2.828805e-12,	3341,	1.610848e-10,	3340.92,	2.89138e-09,	3340.85,	3.659085e-08,	3341.07,	2.188148e-10,	3341.22,	3.831535e-11,	3340.77,	7.749771e-10
1020.03,	0.1453951,	1.427913e-06,	5,	3372.66,	2.792819e-12,	3372.51,	1.626222e-10,	3372.43,	2.884942e-09,	3372.36,	3.645625e-08,	3372.58,	1.383242e-10,	3372.73,	3.796522e-11,	3372.28,	7.799458e-10
1028.57,	0.1520732,	1.472925e-06,	5,	3404.17,	2.74553e-12,	3404.02,	1.609316e-10,	3403.94,	2.903258e-09,	3403.87,	3.670724e-08,	3404.09,	1.195284e-10,	3404.24,	3.78407e-11,	3403.8,	7.779168e-10
1037.22,	0.159053,	1.347045e-06,	5,	3435.68,	3.037028e-12,	3435.53,	1.59383e-10,	3435.46,	2.876555e-09,	3435.38,	3.642351e-08,	3435.61,	1.131523e-10,	3435.75,	3.685047e-11,	3435.31,	7.782817e-10
1045.8,	0.1661933,	1.279146e-06,	5,	3467.19,	2.701827e-12,	3467.04,	1.598151e-10,	3466.97,	2.899796e-09,	3466.89,	3.656175e-08,	3467.12,	1.125804e-10,	3467.27,	3.709048e-11,	3466.82,	7.830951e-10
1054.44,	0.1734368,	1.422954e-06,	5,	3498.7,	2.84346e-12,	3498.55,	1.590106e-10,	3498.48,	2.891052e-09,	3498.4,	3.66163e-08,	3498.63,	1.111098e-10,	3498.78,	3.663307e-11,	3498.33,	7.861847e-10
1063.04,	0.1806153,	1.405407e-06,	5,	3530.21,	2.717402e-12,	3530.07,	1.595042e-10,	3529.99,	2.892985e-09,	3529.92,	3.661994e-08,	3530.14,	1.098759e-10,	3530.29,	3.684702e-11,	3529.84,	7.851834e-10
1071.73,	0.1878359,	1.173101e-06,	5,	3561.73,	2.870577e-12,	3561.58,	1.593455e-10,	3561.5,	2.890177e-09,	3561.43,	3.649263e-08,	3561.65,	1.078415e-10,	3561.8,	3.684204e-11,	3561.35,	7.806041e-10
1080.41,	0.1949265,	1.356581e-06,	5,	3593.24,	2.83779e-12,	3593.09,	1.575381e-10,	3593.01,	2.850036e-09,	3592.94,	3.638166e-08,	3593.16,	1.081697e-10,	3593.31,	3.657175e-11,	3592.87,	7.756111e-10
1088.98,	0.2019942,	1.393582e-06,	5,	3624.75,	2.845073e-12,	3624.6,	1.594189e-10,	3624.53,	2.860424e-09,	3624.45,	3.624161e-08,	3624.67,	3.279945e-10,	3624.82,	3.821201e-11,	3624.38,	7.678965e-10
1097.69,	0.2091345,	1.216206e-06,	5,	3656.26,	2.823672e-12,	3656.11,	1.5947e-10,	3656.04,	2.807596e-09,	3655.96,	3.570501e-08,	3656.19,	6.063676e-10,	3656.34,	3.785569e-11,	3655.89,	7.569251e-10
1106.21,	0.216122,	1.458048e-06,	5,	3687.77,	2.907566e-12,	3687.62,	1.593576e-10,	3687.55,	2.843526e-09,	3687.47,	3.566864e-08,	3687.7,	6.60071e-10,	3687.85,	3.838615e-11,	3687.4,	7.547008e-10
1114.92,	0.2233044,	1.286012e-06,	5,	3719.28,	2.783345e-12,	3719.13,	1.589323e-10,	3719.06,	2.830289e-09,	3718.99,	3.546672e-08,	3719.21,	6.759518e-10,	3719.36,	3.856449e-11,	3718.91,	7.580876e-10
1123.66,	0.2302651,	1.514503e-06,	5,	3750.8,	2.885048e-12,	3750.65,	1.608479e-10,	3750.57,	2.822196e-09,	3750.5,	3.562134e-08,	3750.72,	6.744666e-10,	3750.87,	3.870793e-11,	3750.42,	7.527082e-10
1132.2,	0.2367789,	1.415706e-06,	5,	3782.31,	2.959122e-12,	3782.16,	1.597952e-10,	3782.08,	2.808796e-09,	3782.01,	3.255823e-08,	3782.23,	6.783942e-10,	3782.38,	3.900351e-11,	3781.93,	7.485292e-10
1140.76,	0.2428877,	1.476739e-06,	5,	3813.82,	2.690403e-12,	3813.67,	1.594746e-10,	3813.6,	2.80736e-09,	3813.52,	3.527385e-08,	3813.74,	6.786112e-10,	3813.89,	3.881189e-11,	3813.45,	7.488716e-10
1149.41,	0.2485801,	1.419521e-06,	5,	3845.33,	2.71215e-12,	3845.18,	1.58741e-10,	3845.11,	2.805654e-09,	3845.03,	3.522839e-08,	3845.26,	6.755401e-10,	3845.4,	3.906496e-11,	3844.96,	7.470596e-10
1158.05,	0.2539516,	1.480554e-06,	5,	3876.84,	2.808408e-12,	3876.69,	1.59076e-10,	3876.62,	2.788467e-09,	3876.54,	3.530296e-08,	3876.77,	6.81054e-10,	3876.92,	3.885802e-11,	3876.47,	7.462634e-10
1166.75,	0.2589868,	1.363447e-06,	5,	3908.35,	2.671053e-12,	3908.2,	1.595965e-10,	3908.13,	2.808511e-09,	3908.05,	3.529209e-08,	3908.28,	6.799851e-10,	3908.43,	3.935183e-11,	3907.98,	7.436481e-10
1175.33,	0.2636592,	1.089944e-06,	5,	3939.87,	2.992331e-12,	3939.72,	1.569352e-10,	3939.64,	2.818687e-09,	3939.57,	3.583413e-08,	3939.79,	2.679723e-10,	3939.94,	3.783528e-11,	3939.49,	7.577618e-10
1184.01,	0.2683621,	1.297455e-06,	5,	3971.38,	2.861315e-12,	3971.23,	1.583974e-10,	3971.15,	2.843028e-09,	3971.08,	3.575047e-08,	3971.3,	1.566705e-10,	3971.45,	3.718355e-11,	3971,	7.613837e-10
1192.7,	0.2730153,	1.362302e-06,	5,	4002.89,	2.911733e-12,	4002.74,	1.577334e-10,	4002.66,	2.8367e-09,	4002.59,	3.583595e-08,	4002.81,	1.292315e-10,	4002.96,	3.708033e-11,	4002.51,	7.628331e-10
1201.21,	0.2775883,	1.27266e-06,	5,	4034.4,	2.825707e-12,	4034.25,	1.571927e-10,	4034.18,	2.835809e-09,	4034.1,	3.600514e-08,	4034.33,	1.201658e-10,	4034.47,	3.707934e-11,	4034.03,	7.617237e-10
1209.88,	0.2825395,	1.486657e-06,	5,	4065.91,	2.992988e-12,	4065.76,	1.572303e-10,	4065.69,	2.815866e-09,	4065.61,	3.580143e-08,	4065.84,	1.149722e-10,	4065.99,	3.6908e-11,	4065.54,	7.602533e-10
1218.65,	0.4504993,	0.001002065,	5,	4097.42,	2.724815e-12,	4097.27,	1.558934e-10,	4097.2,	2.828664e-09,	4097.125,	3.580869e-08,	4097.35,	1.117388e-10,	4097.5,	3.66455e-11,	4097.05,	7.671943e-10
1227.36,	0.6755051,	0.001002023,	5,	4128.93,	2.894612e-12,	4128.79,	1.579332e-10,	4128.71,	2.849706e-09,	4128.64,	3.597235e-08,	4128.86,	1.110727e-10,	4129.01,	3.577057e-11,	4128.56,	7.679045e-10
1235.96,	0.7945332,	0.001001844,	5,	4160.45,	2.813897e-12,	4160.3,	1.57638e-10,	4160.22,	2.849389e-09,	4160.15,	3.601243e-08,	4160.37,	1.089185e-10,	4160.52,	3.672563e-11,	4160.07,	7.725207e-10
1244.67,	0.8652296,	0.001001977,	5,	4191.96,	2.705091e-12,	4191.81,	1.56679e-10,	4191.73,	2.820866e-09,	4191.66,	3.591415e-08,	4191.88,	1.07719e-10,	4192.03,	3.599996e-11,	4191.59,	7.644988e-10
1253.22,	0.9098746,	0.001001684,	5,	4223.47,	2.793235e-12,	4223.32,	1.561276e-10,	4223.24,	2.836559e-09,	4223.17,	3.58378e-08,	4223.39,	1.079998e-10,	4223.54,	3.556352e-11,	4223.1,	7.632905e-10
1261.91,	0.9466383,	0.001001958,	5,	4254.98,	2.733713e-12,	4254.83,	1.55075e-10,	4254.76,	2.817555e-09,	4254.68,	3.580869e-08,	4254.9,	1.073918e-10,	4255.05,	3.690524e-11,	4254.61,	7.67009e-10
1270.39,	0.9783208,	0.001002119,	5,	4286.49,	2.665554e-12,	4286.34,	1.549677e-10,	4286.27,	2.8242e-09,	4286.19,	3.561219e-08,	4286.42,	1.060072e-10,	4286.57,	3.668683e-11,	4286.12,	7.647422e-10
1279.05,	1.008131,	0.001001981,	5,	4318,	2.917101e-12,	4317.86,	1.551512e-10,	4317.78,	2.813225e-09,	4317.71,	3.573592e-08,	4317.93,	1.060213e-10,	4318.08,	3.621902e-11,	4317.63,	7.636679e-10
1287.67,	1.035783,	0.001001832,	5,	4349.51,	2.816696e-12,	4349.36,	1.569179e-10,	4349.29,	2.829434e-09,	4349.21,	3.572316e-08,	4349.44,	1.053919e-10,	4349.59,	3.590786e-11,	4349.14,	7.643876e-10
1296.43,	1.061873,	0.001002069,	5,	4381.03,	2.905087e-12,	4380.88,	1.547253e-10,	4380.8,	2.809533e-09,	4380.73,	3.5665e-08,	4380.95,	1.049568e-10,	4381.1,	3.568691e-11,	4380.65,	7.621025e-10
1305.15,	1.086258,	0.00100176,	5,	4412.54,	2.858858e-12,	4412.39,	1.544474e-10,	4412.32,	2.806246e-09,	4412.24,	3.572502e-08,	4412.46,	1.057999e-10,	4412.61,	3.595493e-11,	4412.17,	7.654016e-10
1313.85,	1.109269,	0.00100197,	5,	4444.05,	2.715537e-12,	4443.9,	1.545843e-10,	4443.83,	2.829822e-09,	4443.75,	3.579415e-08,	4443.97,	1.04878e-10,	4444.12,	3.609188e-11,	4443.68,	7.67886e-10
1322.4,	1.131022,	0.001001947,	5,	4475.56,	2.584147e-12,	4475.41,	1.542282e-10,	4475.34,	2.813182e-09,	4475.26,	3.553586e-08,	4475.49,	1.043103e-10,	4475.64,	3.590207e-11,	4475.19,	7.627716e-10
1331.24,	1.152798,	0.001002038,	5,	4507.07,	5.158225e-11,	4506.92,	2.588467e-09,	4506.85,	2.802705e-09,	4506.78,	3.276369e-08,	4507,	1.066739e-09,	4507.15,	5.484746e-11,	4506.7,	7.470705e-10
1340.01,	1.173795,	0.001001833,	5,	4538.58,	5.120651e-10,	4538.43,	5.243422e-08,	4538.36,	2.203787e-09,	4538.29,	6.541898e-10,	4538.51,	9.995126e-09,	4538.66,	8.687303e-11,	4538.21,	5.74844e-10
1348.64,	1.194032,	0.001001985,	5,	4570.1,	5.354188e-10,	4569.95,	5.541738e-08,	4569.87,	1.91818e-09,	4569.8,	6.095217e-12,	4570.02,	1.040753e-08,	4570.17,	7.674664e-11,	4569.72,	5.616712e-10
1357.25,	1.213688,	0.001001928,	5,	4601.61,	5.29175e-10,	4601.46,	5.500264e-08,	4601.38,	1.097687e-09,	4601.31,	6.269727e-12,	4601.53,	1.048905e-08,	4601.68,	7.352619e-11,	4601.23,	5.270085e-10
1365.93,	1.233137,	0.001001817,	5,	4633.12,	5.364513e-10,	4632.97,	5.521902e-08,	4632.89,	1.180307e-09,	4632.82,	6.226886e-12,	4633.04,	1.038854e-08,	4633.19,	7.532341e-11,	4632.75,	5.325115e-10
1374.55,	1.252182,	0.001002012,	5,	4664.63,	5.271552e-10,	4664.48,	5.484988e-08,	4664.41,	8.142635e-10,	4664.33,	6.478214e-12,	4664.56,	1.05933e-08,	4664.7,	7.009291e-11,	4664.26,	5.059226e-10
1383.21,	1.270986,	0.001002008,	5,	4696.14,	5.303242e-10,	4695.99,	5.447149e-08,	4695.92,	7.285769e-10,	4695.84,	6.111548e-12,	4696.07,	1.038814e-08,	4696.22,	6.829887e-11,	4695.77,	4.968638e-10
1391.92,	1.289606,	0.001001707,	5,	4727.65,	5.258587e-10,	4727.51,	5.433322e-08,	4727.43,	6.914536e-10,	4727.36,	5.905169e-12,	4727.58,	1.03721e-08,	4727.73,	6.718094e-11,	4727.28,	4.937312e-10
1400.63,	1.308193,	0.001001989,	5,	4759.17,	5.225774e-10,	4759.02,	5.382216e-08,	4758.94,	6.555777e-10,	4758.87,	6.054064e-12,	4759.09,	1.034473e-08,	4759.24,	6.649713e-11,	4758.79,	4.8657e-10
1409.14,	1.32632,	0.001002027,	5,	4790.68,	5.206686e-10,	4790.53,	5.382394e-08,	4790.45,	6.413812e-10,	4790.38,	6.144461e-12,	4790.6,	1.030288e-08,	4790.75,	6.820493e-11,	4790.3,	4.865625e-10
1417.93,	1.345056,	0.001001905,	5,	,	,	,	,	,	,	,	,	,	,	,	,	,
1426.67,	1.363542,	0.00100171,	5,	,	,	,	,	,	,	,	,	,	,	,	,	,
1435.35,	1.38175,	0.001002176,	5,	,	,	,	,	,	,	,	,	,	,	,	,	,
1444.06,	1.39966,	0.001002069,	5,	,	,	,	,	,	,	,	,	,	,	,	,	,
1452.81,	1.41694,	0.001002,	5,	,	,	,	,	,	,	,	,	,	,	,	,	,
1461.4,	1.433024,	0.001001913,	5,	,	,	,	,	,	,	,	,	,	,	,	,	,
1470.01,	1.448019,	0.00100176,	5,	,	,	,	,	,	,	,	,	,	,	,	,	,
1478.83,	1.461891,	0.001001802,	5,	,	,	,	,	,	,	,	,	,	,	,	,	,
1487.51,	1.474177,	0.001001646,	5,	,	,	,	,	,	,	,	,	,	,	,	,	,
1496.28,	1.485031,	0.001001642,	5,	,	,	,	,	,	,	,	,	,	,	,	,	,
1504.92,	1.494272,	0.001002267,	5,	,	,	,	,	,	,	,	,	,	,	,	,	,
1513.51,	1.420621,	1.244433e-06,	5,	,	,	,	,	,	,	,	,	,	,	,	,	,
1522.2,	1.343625,	1.28029e-06,	5,	,	,	,	,	,	,	,	,	,	,	,	,	,
1530.89,	1.304038,	1.201329e-06,	5,	,	,	,	,	,	,	,	,	,	,	,	,	,
1539.53,	1.277987,	1.260836e-06,	5,	,	,	,	,	,	,	,	,	,	,	,	,	,
1548.32,	1.258709,	1.250918e-06,	5,	,	,	,	,	,	,	,	,	,	,	,	,	,
1557.07,	1.243791,	1.415706e-06,	5,	,	,	,	,	,	,	,	,	,	,	,	,	,
1565.68,	1.231909,	1.313095e-06,	5,	,	,	,	,	,	,	,	,	,	,	,	,	,
1574.37,	1.221884,	1.42448e-06,	5,	,	,	,	,	,	,	,	,	,	,	,	,	,
1583.05,	1.21335,	1.44813e-06,	5,	,	,	,	,	,	,	,	,	,	,	,	,	,
1591.82,	1.20598,	1.287156e-06,	5,	,	,	,	,	,	,	,	,	,	,	,	,	,
1600.54,	1.19947,	1.12809e-06,	5,	,	,	,	,	,	,	,	,	,	,	,	,	,
1609.17,	1.193629,	1.105965e-06,	5,	,	,	,	,	,	,	,	,	,	,	,	,	,
1617.8,	1.188494,	1.175771e-06,	5,	,	,	,	,	,	,	,	,	,	,	,	,	,
1626.62,	1.183692,	1.216587e-06,	5,	,	,	,	,	,	,	,	,	,	,	,	,	,
1635.27,	1.179394,	1.296693e-06,	5,	,	,	,	,	,	,	,	,	,	,	,	,	,
1643.9,	1.175448,	1.2307e-06,	5,	,	,	,	,	,	,	,	,	,	,	,	,	,
1652.45,	1.171803,	1.326065e-06,	5,	,	,	,	,	,	,	,	,	,	,	,	,	,
1661.08,	1.168414,	1.194081e-06,	5,	,	,	,	,	,	,	,	,	,	,	,	,	,
1669.94,	1.165159,	1.184163e-06,	5,	,	,	,	,	,	,	,	,	,	,	,	,	,
1678.58,	1.162168,	1.238711e-06,	5,	,	,	,	,	,	,	,	,	,	,	,	,	,
1687.09,	1.159551,	1.140296e-06,	5,	,	,	,	,	,	,	,	,	,	,	,	,	,
1695.74,	1.156915,	1.426387e-06,	5,	,	,	,	,	,	,	,	,	,	,	,	,	,
1704.46,	1.154516,	1.292496e-06,	5,	,	,	,	,	,	,	,	,	,	,	,	,	,
1713.13,	1.152185,	1.192937e-06,	5,	,	,	,	,	,	,	,	,	,	,	,	,	,
1721.88,	1.149866,	1.208576e-06,	5,	,	,	,	,	,	,	,	,	,	,	,	,	,
1730.48,	1.147776,	1.22002e-06,	5,	,	,	,	,	,	,	,	,	,	,	,	,	,
1738.95,	1.145794,	1.26465e-06,	5,	,	,	,	,	,	,	,	,	,	,	,	,	,
1747.49,	1.143968,	1.337127e-06,	5,	,	,	,	,	,	,	,	,	,	,	,	,	,
1756.31,	1.142,	1.184163e-06,	5,	,	,	,	,	,	,	,	,	,	,	,	,	,
1764.92,	1.140212,	1.009839e-06,	5,	,	,	,	,	,	,	,	,	,	,	,	,	,
1773.61,	1.138531,	1.331786e-06,	5,	,	,	,	,	,	,	,	,	,	,	,	,	,
1782.26,	1.136854,	1.214298e-06,	5,	,	,	,	,	,	,	,	,	,	,	,	,	,
1790.99,	1.135265,	1.269609e-06,	5,	,	,	,	,	,	,	,	,	,	,	,	,	,
1799.51,	1.133798,	1.359632e-06,	5,	,	,	,	,	,	,	,	,	,	,	,	,	,
1808.16,	1.132346,	1.204381e-06,	5,	,	,	,	,	,	,	,	,	,	,	,	,	,
1816.81,	1.565154,	0.005000819,	5,	,	,	,	,	,	,	,	,	,	,	,	,	,
1825.48,	1.587729,	0.005000514,	5,	,	,	,	,	,	,	,	,	,	,	,	,	,
1834.11,	1.598277,	0.005001238,	5,	,	,	,	,	,	,	,	,	,	,	,	,	,
1842.79,	1.605372,	0.005001009,	5,	,	,	,	,	,	,	,	,	,	,	,	,	,
1851.39,	1.610766,	0.005001314,	5,	,	,	,	,	,	,	,	,	,	,	,	,	,
1860.1,	1.61511,	0.005001085,	5,	,	,	,	,	,	,	,	,	,	,	,	,	,
1868.85,	1.618846,	0.005001162,	5,	,	,	,	,	,	,	,	,	,	,	,	,	,
1877.55,	1.621971,	0.005000971,	5,	,	,	,	,	,	,	,	,	,	,	,	,	,
1886.29,	1.624787,	0.005001581,	5,	,	,	,	,	,	,	,	,	,	,	,	,	,
1894.85,	1.627186,	0.005000857,	5,	,	,	,	,	,	,	,	,	,	,	,	,	,
1903.51,	1.629513,	0.005001162,	5,	,	,	,	,	,	,	,	,	,	,	,	,	,
1912.03,	1.631457,	0.005001505,	5,	,	,	,	,	,	,	,	,	,	,	,	,	,
1920.83,	1.633371,	0.005001314,	5,	,	,	,	,	,	,	,	,	,	,	,	,	,
1929.59,	1.635132,	0.005001581,	5,	,	,	,	,	,	,	,	,	,	,	,	,	,
1938.3,	1.636729,	0.005000933,	5,	,	,	,	,	,	,	,	,	,	,	,	,	,
1947,	1.638212,	0.005002039,	5,	,	,	,	,	,	,	,	,	,	,	,	,	,
1955.71,	1.639671,	0.005001162,	5,	,	,	,	,	,	,	,	,	,	,	,	,	,
1964.33,	1.641012,	0.005000971,	5,	,	,	,	,	,	,	,	,	,	,	,	,	,
1973.09,	1.642334,	0.005001238,	5,	,	,	,	,	,	,	,	,	,	,	,	,	,
1981.65,	1.643488,	0.005001162,	5,	,	,	,	,	,	,	,	,	,	,	,	,	,
1990.26,	1.644588,	0.005001467,	5,	,	,	,	,	,	,	,	,	,	,	,	,	,
1999.05,	1.645749,	0.005001276,	5,	,	,	,	,	,	,	,	,	,	,	,	,	,
2007.59,	1.646746,	0.005001467,	5,	,	,	,	,	,	,	,	,	,	,	,	,	,
2016.22,	1.64777,	0.00500162,	5,	,	,	,	,	,	,	,	,	,	,	,	,	,
2024.87,	1.648752,	0.005001505,	5,	,	,	,	,	,	,	,	,	,	,	,	,	,
2033.59,	1.649612,	0.005001314,	5,	,	,	,	,	,	,	,	,	,	,	,	,	,
2042.07,	1.650559,	0.005001467,	5,	,	,	,	,	,	,	,	,	,	,	,	,	,
2050.69,	1.651388,	0.005001047,	5,	,	,	,	,	,	,	,	,	,	,	,	,	,
2059.25,	1.652187,	0.005000895,	5,	,	,	,	,	,	,	,	,	,	,	,	,	,
2068.03,	1.652955,	0.005001467,	5,	,	,	,	,	,	,	,	,	,	,	,	,	,
2076.65,	1.653742,	0.005001124,	5,	,	,	,	,	,	,	,	,	,	,	,	,	,
2085.31,	1.654532,	0.005001352,	5,	,	,	,	,	,	,	,	,	,	,	,	,	,
2093.88,	1.655251,	0.005001429,	5,	,	,	,	,	,	,	,	,	,	,	,	,	,
2102.4,	1.655957,	0.005001124,	5,	,	,	,	,	,	,	,	,	,	,	,	,	,
2111.14,	1.588753,	1.098717e-06,	5,	,	,	,	,	,	,	,	,	,	,	,	,	,
2119.8,	1.502725,	1.18607e-06,	5,	,	,	,	,	,	,	,	,	,	,	,	,	,
2128.48,	1.477121,	1.178061e-06,	5,	,	,	,	,	,	,	,	,	,	,	,	,	,
2137.19,	1.460021,	1.092996e-06,	5,	,	,	,	,	,	,	,	,	,	,	,	,	,
2145.67,	1.4472,	1.145636e-06,	5,	,	,	,	,	,	,	,	,	,	,	,	,	,
2154.33,	1.436231,	1.273805e-06,	5,	,	,	,	,	,	,	,	,	,	,	,	,	,
2162.87,	1.426959,	1.184545e-06,	5,	,	,	,	,	,	,	,	,	,	,	,	,	,
2171.54,	1.41868,	1.353148e-06,	5,	,	,	,	,	,	,	,	,	,	,	,	,	,
2180.11,	1.411384,	1.100625e-06,	5,	,	,	,	,	,	,	,	,	,	,	,	,	,
2188.84,	1.404526,	1.436305e-06,	5,	,	,	,	,	,	,	,	,	,	,	,	,	,
2197.56,	1.398375,	1.32759e-06,	5,	,	,	,	,	,	,	,	,	,	,	,	,	,
2206.17,	1.39256,	1.237948e-06,	5,	,	,	,	,	,	,	,	,	,	,	,	,	,
2214.86,	1.387086,	1.330642e-06,	5,	,	,	,	,	,	,	,	,	,	,	,	,	,
2223.54,	1.381852,	1.11245e-06,	5,	,	,	,	,	,	,	,	,	,	,	,	,	,
2232.21,	1.376916,	1.163183e-06,	5,	,	,	,	,	,	,	,	,	,	,	,	,	,
2240.82,	1.372278,	1.118935e-06,	5,	,	,	,	,	,	,	,	,	,	,	,	,	,
2249.48,	1.367774,	1.090707e-06,	5,	,	,	,	,	,	,	,	,	,	,	,	,	,
2258.14,	1.363422,	1.04417e-06,	5,	,	,	,	,	,	,	,	,	,	,	,	,	,
2266.81,	1.359247,	1.119698e-06,	5,	,	,	,	,	,	,	,	,	,	,	,	,	,
2275.3,	1.35538,	1.366499e-06,	5,	,	,	,	,	,	,	,	,	,	,	,	,	,
2284.1,	1.351529,	1.431346e-06,	5,	,	,	,	,	,	,	,	,	,	,	,	,	,
2292.78,	1.347893,	1.419902e-06,	5,	,	,	,	,	,	,	,	,	,	,	,	,	,
2301.43,	1.344305,	1.335601e-06,	5,	,	,	,	,	,	,	,	,	,	,	,	,	,
2310.17,	1.340752,	1.122368e-06,	5,	,	,	,	,	,	,	,	,	,	,	,	,	,
2318.78,	1.337348,	1.124275e-06,	5,	,	,	,	,	,	,	,	,	,	,	,	,	,
2327.45,	1.33399,	1.253588e-06,	5,	,	,	,	,	,	,	,	,	,	,	,	,	,
2336.15,	1.330727,	1.352766e-06,	5,	,	,	,	,	,	,	,	,	,	,	,	,	,
2344.77,	1.327587,	1.141059e-06,	5,	,	,	,	,	,	,	,	,	,	,	,	,	,
2353.48,	1.324519,	1.162421e-06,	5,	,	,	,	,	,	,	,	,	,	,	,	,	,
2362.19,	1.321562,	1.094903e-06,	5,	,	,	,	,	,	,	,	,	,	,	,	,	,
2370.91,	1.318773,	1.210484e-06,	5,	,	,	,	,	,	,	,	,	,	,	,	,	,
2379.58,	1.316015,	1.200185e-06,	5,	,	,	,	,	,	,	,	,	,	,	,	,	,
2388.23,	1.313383,	1.162802e-06,	5,	,	,	,	,	,	,	,	,	,	,	,	,	,
2396.86,	1.310074,	1.076593e-06,	5,	,	,	,	,	,	,	,	,	,	,	,	,	,
2405.42,	1.306304,	1.099862e-06,	5,	,	,	,	,	,	,	,	,	,	,	,	,	,
2414.03,	1.662192,	0.01000237,	5,	,	,	,	,	,	,	,	,	,	,	,	,	,
2422.69,	1.671755,	0.01000215,	5,	,	,	,	,	,	,	,	,	,	,	,	,	,
2431.38,	1.676072,	0.01000218,	5,	,	,	,	,	,	,	,	,	,	,	,	,	,
2440.01,	1.679178,	0.01000207,	5,	,	,	,	,	,	,	,	,	,	,	,	,	,
2448.51,	1.681474,	0.01000253,	5,	,	,	,	,	,	,	,	,	,	,	,	,	,
2457.26,	1.683598,	0.01000237,	5,	,	,	,	,	,	,	,	,	,	,	,	,	,
2465.96,	1.685378,	0.01000199,	5,	,	,	,	,	,	,	,	,	,	,	,	,	,
2474.63,	1.686964,	0.0100026,	5,	,	,	,	,	,	,	,	,	,	,	,	,	,
2483.43,	1.68837,	0.01000196,	5,	,	,	,	,	,	,	,	,	,	,	,	,	,
2492.11,	1.689665,	0.01000272,	5,	,	,	,	,	,	,	,	,	,	,	,	,	,
2500.78,	1.690876,	0.01000196,	5,	,	,	,	,	,	,	,	,	,	,	,	,	,
2509.45,	1.69206,	0.01000222,	5,	,	,	,	,	,	,	,	,	,	,	,	,	,
2518.08,	1.693153,	0.01000218,	5,	,	,	,	,	,	,	,	,	,	,	,	,	,
2526.71,	1.694089,	0.01000295,	5,	,	,	,	,	,	,	,	,	,	,	,	,	,
2535.39,	1.695105,	0.01000237,	5,	,	,	,	,	,	,	,	,	,	,	,	,	,
2544.06,	1.695987,	0.01000226,	5,	,	,	,	,	,	,	,	,	,	,	,	,	,
2552.7,	1.696874,	0.01000207,	5,	,	,	,	,	,	,	,	,	,	,	,	,	,
2561.37,	1.69771,	0.01000218,	5,	,	,	,	,	,	,	,	,	,	,	,	,	,
2569.97,	1.69849,	0.01000203,	5,	,	,	,	,	,	,	,	,	,	,	,	,	,
2578.47,	1.699288,	0.01000176,	5,	,	,	,	,	,	,	,	,	,	,	,	,	,
2587.13,	1.700037,	0.01000199,	5,	,	,	,	,	,	,	,	,	,	,	,	,	,
2595.78,	1.700709,	0.01000245,	5,	,	,	,	,	,	,	,	,	,	,	,	,	,
2604.52,	1.701443,	0.0100023,	5,	,	,	,	,	,	,	,	,	,	,	,	,	,
2613.15,	1.702085,	0.01000241,	5,	,	,	,	,	,	,	,	,	,	,	,	,	,
2621.96,	1.702784,	0.01000192,	5,	,	,	,	,	,	,	,	,	,	,	,	,	,
2630.65,	1.703445,	0.01000138,	5,	,	,	,	,	,	,	,	,	,	,	,	,	,
2639.26,	1.704026,	0.01000215,	5,	,	,	,	,	,	,	,	,	,	,	,	,	,
2647.96,	1.704629,	0.0100023,	5,	,	,	,	,	,	,	,	,	,	,	,	,	,
2656.54,	1.70521,	0.01000257,	5,	,	,	,	,	,	,	,	,	,	,	,	,	,
2665.23,	1.705745,	0.01000226,	5,	,	,	,	,	,	,	,	,	,	,	,	,	,
2673.91,	1.706364,	0.01000241,	5,	,	,	,	,	,	,	,	,	,	,	,	,	,
2682.49,	1.706933,	0.01000218,	5,	,	,	,	,	,	,	,	,	,	,	,	,	,
2690.98,	1.707414,	0.01000184,	5,	,	,	,	,	,	,	,	,	,	,	,	,	,
2699.97,	1.707922,	0.01000253,	5,	,	,	,	,	,	,	,	,	,	,	,	,	,
2708.85,	1.708457,	0.01000218,	5,	,	,	,	,	,	,	,	,	,	,	,	,	,
2717.49,	1.540261,	1.372602e-06,	5,	,	,	,	,	,	,	,	,	,	,	,	,	,
2726.02,	1.511676,	1.318054e-06,	5,	,	,	,	,	,	,	,	,	,	,	,	,	,
2734.56,	1.494997,	1.57401e-06,	5,	,	,	,	,	,	,	,	,	,	,	,	,	,
2743.17,	1.482695,	1.266939e-06,	5,	,	,	,	,	,	,	,	,	,	,	,	,	,
2751.91,	1.472915,	1.240237e-06,	5,	,	,	,	,	,	,	,	,	,	,	,	,	,
2760.61,	1.464666,	1.260454e-06,	5,	,	,	,	,	,	,	,	,	,	,	,	,	,
2769.23,	1.457637,	1.270754e-06,	5,	,	,	,	,	,	,	,	,	,	,	,	,	,
2777.83,	1.451257,	1.265795e-06,	5,	,	,	,	,	,	,	,	,	,	,	,	,	,
2786.59,	1.445549,	1.248629e-06,	5,	,	,	,	,	,	,	,	,	,	,	,	,	,
2795,	1.440487,	1.252444e-06,	5,	,	,	,	,	,	,	,	,	,	,	,	,	,
2803.67,	1.435769,	1.234897e-06,	5,	,	,	,	,	,	,	,	,	,	,	,	,	,
2812.42,	1.431146,	1.296311e-06,	5,	,	,	,	,	,	,	,	,	,	,	,	,	,
2820.96,	1.426955,	1.177297e-06,	5,	,	,	,	,	,	,	,	,	,	,	,	,	,
2829.57,	1.42291,	1.202092e-06,	5,	,	,	,	,	,	,	,	,	,	,	,	,	,
2838.18,	1.418998,	1.173864e-06,	5,	,	,	,	,	,	,	,	,	,	,	,	,	,
2846.88,	1.415307,	1.298218e-06,	5,	,	,	,	,	,	,	,	,	,	,	,	,	,
2855.57,	1.411682,	1.292496e-06,	5,	,	,	,	,	,	,	,	,	,	,	,	,	,
2864.18,	1.408373,	1.219257e-06,	5,	,	,	,	,	,	,	,	,	,	,	,	,	,
2872.96,	1.405164,	1.450419e-06,	5,	,	,	,	,	,	,	,	,	,	,	,	,	,
2881.67,	1.40197,	1.280671e-06,	5,	,	,	,	,	,	,	,	,	,	,	,	,	,
2890.33,	1.398952,	1.180349e-06,	5,	,	,	,	,	,	,	,	,	,	,	,	,	,
2899.02,	1.395995,	1.063624e-06,	5,	,	,	,	,	,	,	,	,	,	,	,	,	,
2907.71,	1.392923,	1.26732e-06,	5,	,	,	,	,	,	,	,	,	,	,	,	,	,
2916.47,	1.389898,	1.141441e-06,	5,	,	,	,	,	,	,	,	,	,	,	,	,	,
2924.9,	1.387082,	1.153647e-06,	5,	,	,	,	,	,	,	,	,	,	,	,	,	,
2933.56,	1.384358,	1.310806e-06,	5,	,	,	,	,	,	,	,	,	,	,	,	,	,
2942.16,	1.381768,	1.309662e-06,	5,	,	,	,	,	,	,	,	,	,	,	,	,	,
2950.8,	1.379082,	1.165472e-06,	5,	,	,	,	,	,	,	,	,	,	,	,	,	,
2959.53,	1.376561,	1.318817e-06,	5,	,	,	,	,	,	,	,	,	,	,	,	,	,
2968.21,	1.374047,	1.358106e-06,	5,	,	,	,	,	,	,	,	,	,	,	,	,	,
2976.92,	1.37167,	1.255114e-06,	5,	,	,	,	,	,	,	,	,	,	,	,	,	,
2985.49,	1.369294,	1.258547e-06,	5,	,	,	,	,	,	,	,	,	,	,	,	,	,
2994.23,	1.36701,	1.283341e-06,	5,	,	,	,	,	,	,	,	,	,	,	,	,	,
3002.91,	1.364675,	1.352766e-06,	5,	,	,	,	,	,	,	,	,	,	,	,	,	,
3011.67,	1.695846,	0.01500286,	5,	,	,	,	,	,	,	,	,	,	,	,	,	,
3020.35,	1.71083,	0.01500229,	5,	,	,	,	,	,	,	,	,	,	,	,	,	,
3029.15,	1.714994,	0.01500279,	5,	,	,	,	,	,	,	,	,	,	,	,	,	,
3037.83,	1.717573,	0.01500305,	5,	,	,	,	,	,	,	,	,	,	,	,	,	,
3046.56,	1.719529,	0.01500309,	5,	,	,	,	,	,	,	,	,	,	,	,	,	,
3055.17,	1.721164,	0.01500233,	5,	,	,	,	,	,	,	,	,	,	,	,	,	,
3063.94,	1.722574,	0.01500309,	5,	,	,	,	,	,	,	,	,	,	,	,	,	,
3072.48,	1.723811,	0.01500321,	5,	,	,	,	,	,	,	,	,	,	,	,	,	,
3081.11,	1.724896,	0.01500366,	5,	,	,	,	,	,	,	,	,	,	,	,	,	,
3089.69,	1.725913,	0.01500263,	5,	,	,	,	,	,	,	,	,	,	,	,	,	,
3098.25,	1.72691,	0.01500347,	5,	,	,	,	,	,	,	,	,	,	,	,	,	,
3107.06,	1.727853,	0.01500275,	5,	,	,	,	,	,	,	,	,	,	,	,	,	,
3115.67,	1.728625,	0.01500343,	5,	,	,	,	,	,	,	,	,	,	,	,	,	,
3124.22,	1.729446,	0.01500302,	5,	,	,	,	,	,	,	,	,	,	,	,	,	,
3132.93,	1.730188,	0.01500282,	5,	,	,	,	,	,	,	,	,	,	,	,	,	,
3141.55,	1.730921,	0.0150029,	5,	,	,	,	,	,	,	,	,	,	,	,	,	,
3150.07,	1.731582,	0.01500283,	5,	,	,	,	,	,	,	,	,	,	,	,	,	,
3158.76,	1.732335,	0.01500282,	5,	,	,	,	,	,	,	,	,	,	,	,	,	,
3167.37,	1.732938,	0.0150029,	5,	,	,	,	,	,	,	,	,	,	,	,	,	,
3175.96,	1.733576,	0.01500336,	5,	,	,	,	,	,	,	,	,	,	,	,	,	,
3184.53,	1.734146,	0.0150029,	5,	,	,	,	,	,	,	,	,	,	,	,	,	,
3193.04,	1.734707,	0.0150034,	5,	,	,	,	,	,	,	,	,	,	,	,	,	,
3201.65,	1.735322,	0.01500279,	5,	,	,	,	,	,	,	,	,	,	,	,	,	,
3210.24,	1.735792,	0.01500321,	5,	,	,	,	,	,	,	,	,	,	,	,	,	,
3218.88,	1.736319,	0.01500317,	5,	,	,	,	,	,	,	,	,	,	,	,	,	,
3227.62,	1.736881,	0.01500275,	5,	,	,	,	,	,	,	,	,	,	,	,	,	,
3236.32,	1.737378,	0.01500279,	5,	,	,	,	,	,	,	,	,	,	,	,	,	,
3244.88,	1.737828,	0.0150026,	5,	,	,	,	,	,	,	,	,	,	,	,	,	,
3253.57,	1.738314,	0.01500279,	5,	,	,	,	,	,	,	,	,	,	,	,	,	,
3262.32,	1.738803,	0.01500298,	5,	,	,	,	,	,	,	,	,	,	,	,	,	,
3270.94,	1.739284,	0.01500313,	5,	,	,	,	,	,	,	,	,	,	,	,	,	,
3279.59,	1.739758,	0.01500294,	5,	,	,	,	,	,	,	,	,	,	,	,	,	,
3288.32,	1.74017,	0.01500286,	5,	,	,	,	,	,	,	,	,	,	,	,	,	,
3296.74,	1.740594,	0.01500305,	5,	,	,	,	,	,	,	,	,	,	,	,	,	,
3305.4,	1.741022,	0.0150026,	5,	,	,	,	,	,	,	,	,	,	,	,	,	,
3314.06,	1.579504,	1.427913e-06,	5,	,	,	,	,	,	,	,	,	,	,	,	,	,
3322.63,	1.53644,	1.37985e-06,	5,	,	,	,	,	,	,	,	,	,	,	,	,	,
3331.27,	1.516788,	1.252825e-06,	5,	,	,	,	,	,	,	,	,	,	,	,	,	,
3340.02,	1.503482,	1.142966e-06,	5,	,	,	,	,	,	,	,	,	,	,	,	,	,
3348.65,	1.493449,	1.311951e-06,	5,	,	,	,	,	,	,	,	,	,	,	,	,	,
3357.17,	1.485419,	1.393582e-06,	5,	,	,	,	,	,	,	,	,	,	,	,	,	,
3365.92,	1.478317,	1.296311e-06,	5,	,	,	,	,	,	,	,	,	,	,	,	,	,
3374.47,	1.472284,	1.229556e-06,	5,	,	,	,	,	,	,	,	,	,	,	,	,	,
3383.2,	1.466791,	1.172339e-06,	5,	,	,	,	,	,	,	,	,	,	,	,	,	,
3391.83,	1.461874,	1.238711e-06,	5,	,	,	,	,	,	,	,	,	,	,	,	,	,
3400.44,	1.457381,	1.265795e-06,	5,	,	,	,	,	,	,	,	,	,	,	,	,	,
3409.03,	1.453129,	1.12809e-06,	5,	,	,	,	,	,	,	,	,	,	,	,	,	,
3417.71,	1.44914,	1.391293e-06,	5,	,	,	,	,	,	,	,	,	,	,	,	,	,
3426.39,	1.445454,	1.348189e-06,	5,	,	,	,	,	,	,	,	,	,	,	,	,	,
3435.04,	1.441989,	1.350096e-06,	5,	,	,	,	,	,	,	,	,	,	,	,	,	,
3443.71,	1.438577,	1.641909e-06,	5,	,	,	,	,	,	,	,	,	,	,	,	,	,
3452.28,	1.435421,	1.400067e-06,	5,	,	,	,	,	,	,	,	,	,	,	,	,	,
3460.89,	1.432468,	1.416469e-06,	5,	,	,	,	,	,	,	,	,	,	,	,	,	,
3469.46,	1.429557,	1.4508e-06,	5,	,	,	,	,	,	,	,	,	,	,	,	,	,
3478.16,	1.426818,	1.409221e-06,	5,	,	,	,	,	,	,	,	,	,	,	,	,	,
3487.01,	1.423987,	1.25664e-06,	5,	,	,	,	,	,	,	,	,	,	,	,	,	,
3495.7,	1.421309,	1.300889e-06,	5,	,	,	,	,	,	,	,	,	,	,	,	,	,
3504.25,	1.418902,	1.28296e-06,	5,	,	,	,	,	,	,	,	,	,	,	,	,	,
3512.85,	1.416404,	1.101769e-06,	5,	,	,	,	,	,	,	,	,	,	,	,	,	,
3521.46,	1.413928,	1.310044e-06,	5,	,	,	,	,	,	,	,	,	,	,	,	,	,
3530.27,	1.411468,	1.219639e-06,	5,	,	,	,	,	,	,	,	,	,	,	,	,	,
3538.88,	1.409187,	1.337508e-06,	5,	,	,	,	,	,	,	,	,	,	,	,	,	,
3547.68,	1.40694,	1.019757e-06,	5,	,	,	,	,	,	,	,	,	,	,	,	,	,
3556.45,	1.404686,	1.266939e-06,	5,	,	,	,	,	,	,	,	,	,	,	,	,	,
3565.04,	1.402578,	1.160895e-06,	5,	,	,	,	,	,	,	,	,	,	,	,	,	,
3573.75,	1.400465,	1.44279e-06,	5,	,	,	,	,	,	,	,	,	,	,	,	,	,
3582.39,	1.398341,	1.411892e-06,	5,	,	,	,	,	,	,	,	,	,	,	,	,	,
3591.04,	1.396389,	1.236423e-06,	5,	,	,	,	,	,	,	,	,	,	,	,	,	,
3599.68,	1.394425,	1.147926e-06,	5,	,	,	,	,	,	,	,	,	,	,	,	,	,
3608.36,	1.392572,	1.203618e-06,	5,	,	,	,	,	,	,	,	,	,	,	,	,	,
3617.11,	1.73627,	0.02000308,	5,	,	,	,	,	,	,	,	,	,	,	,	,	,
3625.78,	1.741209,	0.0200027,	5,	,	,	,	,	,	,	,	,	,	,	,	,	,
3634.37,	1.74383,	0.02000255,	5,	,	,	,	,	,	,	,	,	,	,	,	,	,
3642.86,	1.745805,	0.02000247,	5,	,	,	,	,	,	,	,	,	,	,	,	,	,
3651.39,	1.74736,	0.02000263,	5,	,	,	,	,	,	,	,	,	,	,	,	,	,
3660,	1.748625,	0.02000274,	5,	,	,	,	,	,	,	,	,	,	,	,	,	,
3668.63,	1.749756,	0.0200032,	5,	,	,	,	,	,	,	,	,	,	,	,	,	,
3677.23,	1.750821,	0.02000274,	5,	,	,	,	,	,	,	,	,	,	,	,	,	,
3686,	1.751742,	0.02000266,	5,	,	,	,	,	,	,	,	,	,	,	,	,	,
3694.71,	1.752598,	0.0200024,	5,	,	,	,	,	,	,	,	,	,	,	,	,	,
3703.45,	1.75337,	0.02000247,	5,	,	,	,	,	,	,	,	,	,	,	,	,	,
3712.08,	1.754203,	0.02000213,	5,	,	,	,	,	,	,	,	,	,	,	,	,	,
3720.65,	1.754799,	0.02000289,	5,	,	,	,	,	,	,	,	,	,	,	,	,	,
3729.35,	1.755494,	0.02000221,	5,	,	,	,	,	,	,	,	,	,	,	,	,	,
3738.06,	1.75609,	0.02000247,	5,	,	,	,	,	,	,	,	,	,	,	,	,	,
3746.75,	1.756667,	0.02000327,	5,	,	,	,	,	,	,	,	,	,	,	,	,	,
3755.48,	1.757286,	0.02000339,	5,	,	,	,	,	,	,	,	,	,	,	,	,	,
3764.02,	1.757847,	0.02000289,	5,	,	,	,	,	,	,	,	,	,	,	,	,	,
3772.5,	1.758325,	0.02000247,	5,	,	,	,	,	,	,	,	,	,	,	,	,	,
3781.23,	1.758909,	0.02000266,	5,	,	,	,	,	,	,	,	,	,	,	,	,	,
3790.01,	1.759395,	0.02000285,	5,	,	,	,	,	,	,	,	,	,	,	,	,	,
3798.73,	1.759891,	0.0200032,	5,	,	,	,	,	,	,	,	,	,	,	,	,	,
3807.41,	1.76035,	0.02000236,	5,	,	,	,	,	,	,	,	,	,	,	,	,	,
3816.03,	1.760854,	0.02000266,	5,	,	,	,	,	,	,	,	,	,	,	,	,	,
3824.72,	1.761266,	0.02000293,	5,	,	,	,	,	,	,	,	,	,	,	,	,	,
3833.43,	1.761645,	0.02000301,	5,	,	,	,	,	,	,	,	,	,	,	,	,	,
3842.24,	1.762145,	0.02000274,	5,	,	,	,	,	,	,	,	,	,	,	,	,	,
3851.02,	1.762531,	0.02000255,	5,	,	,	,	,	,	,	,	,	,	,	,	,	,
3859.53,	1.762932,	0.02000274,	5,	,	,	,	,	,	,	,	,	,	,	,	,	,
3868.21,	1.763341,	0.02000316,	5,	,	,	,	,	,	,	,	,	,	,	,	,	,
3876.79,	1.763681,	0.02000274,	5,	,	,	,	,	,	,	,	,	,	,	,	,	,
3885.42,	1.764097,	0.02000323,	5,	,	,	,	,	,	,	,	,	,	,	,	,	,
3894.18,	1.764476,	0.02000285,	5,	,	,	,	,	,	,	,	,	,	,	,	,	,
3902.72,	1.764804,	0.02000263,	5,	,	,	,	,	,	,	,	,	,	,	,	,	,
3911.31,	1.643786,	1.01022e-06,	5,	,	,	,	,	,	,	,	,	,	,	,	,	,
3919.96,	1.556111,	1.2513e-06,	5,	,	,	,	,	,	,	,	,	,	,	,	,	,
3928.62,	1.53267,	1.383283e-06,	5,	,	,	,	,	,	,	,	,	,	,	,	,	,
3937.29,	1.518148,	1.23566e-06,	5,	,	,	,	,	,	,	,	,	,	,	,	,	,
3946.06,	1.507493,	1.199803e-06,	5,	,	,	,	,	,	,	,	,	,	,	,	,	,
3954.55,	1.499314,	1.371839e-06,	5,	,	,	,	,	,	,	,	,	,	,	,	,	,
3963.27,	1.492185,	1.155936e-06,	5,	,	,	,	,	,	,	,	,	,	,	,	,	,
3971.9,	1.486225,	1.354292e-06,	5,	,	,	,	,	,	,	,	,	,	,	,	,	,
3980.57,	1.48085,	1.378324e-06,	5,	,	,	,	,	,	,	,	,	,	,	,	,	,
3989.19,	1.476036,	1.423335e-06,	5,	,	,	,	,	,	,	,	,	,	,	,	,	,
3997.86,	1.471677,	1.405788e-06,	5,	,	,	,	,	,	,	,	,	,	,	,	,	,
4006.53,	1.46752,	1.35124e-06,	5,	,	,	,	,	,	,	,	,	,	,	,	,	,
4015.18,	1.463761,	1.378324e-06,	5,	,	,	,	,	,	,	,	,	,	,	,	,	,
4023.87,	1.460269,	1.236804e-06,	5,	,	,	,	,	,	,	,	,	,	,	,	,	,
4032.5,	1.456896,	1.59499e-06,	5,	,	,	,	,	,	,	,	,	,	,	,	,	,
4041.07,	1.453744,	1.247485e-06,	5,	,	,	,	,	,	,	,	,	,	,	,	,	,
4049.84,	1.450749,	1.326446e-06,	5,	,	,	,	,	,	,	,	,	,	,	,	,	,
4058.6,	1.447918,	1.290589e-06,	5,	,	,	,	,	,	,	,	,	,	,	,	,	,
4067.33,	1.445209,	1.157462e-06,	5,	,	,	,	,	,	,	,	,	,	,	,	,	,
4076.06,	1.442375,	1.212391e-06,	5,	,	,	,	,	,	,	,	,	,	,	,	,	,
4084.77,	1.439857,	1.361159e-06,	5,	,	,	,	,	,	,	,	,	,	,	,	,	,
4093.48,	1.437412,	1.291734e-06,	5,	,	,	,	,	,	,	,	,	,	,	,	,	,
4102.2,	1.435097,	1.389386e-06,	5,	,	,	,	,	,	,	,	,	,	,	,	,	,
4110.86,	1.432755,	1.29097e-06,	5,	,	,	,	,	,	,	,	,	,	,	,	,	,
4119.56,	1.430478,	1.442408e-06,	5,	,	,	,	,	,	,	,	,	,	,	,	,	,
4128.15,	1.428369,	1.46644e-06,	5,	,	,	,	,	,	,	,	,	,	,	,	,	,
4136.89,	1.426317,	1.429057e-06,	5,	,	,	,	,	,	,	,	,	,	,	,	,	,
4145.63,	1.424308,	1.32225e-06,	5,	,	,	,	,	,	,	,	,	,	,	,	,	,
4154.39,	1.422294,	1.405789e-06,	5,	,	,	,	,	,	,	,	,	,	,	,	,	,
4162.96,	1.420365,	1.240619e-06,	5,	,	,	,	,	,	,	,	,	,	,	,	,	,
4171.75,	1.418409,	1.464914e-06,	5,	,	,	,	,	,	,	,	,	,	,	,	,	,
4180.51,	1.416564,	1.326064e-06,	5,	,	,	,	,	,	,	,	,	,	,	,	,	,
4189.11,	1.414772,	1.326827e-06,	5,	,	,	,	,	,	,	,	,	,	,	,	,	,
4197.79,	1.412969,	1.345901e-06,	5,	,	,	,	,	,	,	,	,	,	,	,	,	,
4206.47,	1.411322,	1.363829e-06,	5,	,	,	,	,	,	,	,	,	,	,	,	,	,
4210.52,	1.410604,	1.656404e-06,	5,	,	,	,	,	,	,	,	,	,	,	,	,	,